"Time (s)","Linear Acceleration x (m/s^2)","Linear Acceleration y (m/s^2)","Linear Acceleration z (m/s^2)","Absolute acceleration (m/s^2)"
1.557009490E-1,3.367838860E-1,-1.060955524E-1,-5.147209167E-1,6.241932988E-1
1.742133450E-1,2.735280991E-1,-1.130189896E-1,-4.938478470E-1,5.757400533E-1
1.927745950E-1,7.693111897E-2,-1.080415249E-1,-2.673196793E-1,2.984144418E-1
2.113538660E-1,5.951881409E-3,-1.127409935E-1,-6.550788879E-3,1.130878833E-1
2.299151160E-1,3.852367401E-3,-1.035356522E-2,8.862209320E-2,8.930796409E-2
2.484763660E-1,1.395540237E-1,1.048643589E-1,-4.310703278E-2,1.798056606E-1
2.670196470E-1,2.621684074E-1,1.431868076E-1,-2.458076477E-1,3.868541526E-1
2.855808970E-1,3.999105692E-1,1.688299179E-1,-2.601213455E-1,5.060584145E-1
3.041910530E-1,4.353158474E-1,1.163966656E-1,-2.152462006E-1,4.993786115E-1
3.227511580E-1,2.840783596E-1,1.228876114E-1,-1.762609482E-1,3.561878736E-1
3.413124080E-1,2.946782112E-1,5.276989937E-2,2.988338470E-2,3.008536640E-1
3.598259490E-1,4.151442647E-1,-3.028130531E-2,2.066135406E-1,4.647051465E-1
3.783871990E-1,3.239493966E-1,-2.737522125E-2,2.082376480E-1,3.860771067E-1
3.969962100E-1,3.269642591E-1,-1.927185059E-2,1.044178009E-1,3.437733383E-1
4.155574600E-1,3.492084742E-1,-7.198047638E-2,8.528137207E-2,3.666069555E-1
4.340710010E-1,4.119220376E-1,-1.094372272E-1,3.193407059E-1,5.325737115E-1
4.526322510E-1,3.759399652E-1,-1.134765148E-1,4.103059769E-1,5.679425777E-1
4.712415740E-1,3.192039132E-1,-8.606266975E-2,2.900266647E-1,4.397878893E-1
4.898025120E-1,3.595032692E-1,-2.042746544E-2,3.520584106E-2,3.618001287E-1
5.083638140E-1,4.676946402E-1,7.393264771E-2,-2.604532242E-1,5.404074341E-1
5.268773030E-1,4.661079645E-1,1.457226276E-1,-4.419364929E-1,6.586346351E-1
5.454386050E-1,4.581596255E-1,1.517646313E-1,-3.923721313E-1,6.220117645E-1
5.640178240E-1,5.812664032E-1,1.982800961E-1,-2.101068497E-1,6.490997737E-1
5.825790740E-1,7.183182836E-1,3.054487705E-1,-3.964996338E-2,7.815703599E-1
6.011254800E-1,1.055010676E0,3.293406963E-1,-6.670856476E-2,1.107232069E0
6.196836050E-1,1.152083397E0,3.929283619E-1,-1.396541595E-1,1.225231462E0
6.382449080E-1,1.120187402E0,4.214890003E-1,-1.522512436E-1,1.206504552E0
6.568538660E-1,8.759393692E-1,3.598846197E-1,5.775642395E-2,9.487478709E-1
6.754151680E-1,7.612638474E-1,5.736291409E-1,3.344831467E-1,1.010174248E0
6.939286580E-1,8.307183385E-1,8.337882757E-1,2.956399918E-1,1.213548042E0
7.124899080E-1,9.969177842E-1,8.488252163E-1,3.515338898E-2,1.309803450E0
7.311418870E-1,1.048049569E0,8.330522776E-1,-2.667665482E-1,1.365118452E0
7.496602200E-1,1.141162276E0,1.161094666E0,-4.836988449E-1,1.698339405E0
7.682214700E-1,1.058982849E0,1.488937140E0,-8.159227371E-1,2.001026835E0
7.867349600E-1,8.572620153E-1,1.137359858E0,2.715387344E-1,1.449903063E0
8.052962620E-1,7.596746087E-1,1.055423260E0,1.366480827E0,1.886343982E0
8.239063660E-1,5.459499955E-1,1.214716911E0,1.440898895E0,1.962087714E0
8.424665220E-1,3.439032137E-1,1.370793939E0,1.010643959E0,1.737454073E0
8.610277720E-1,5.396387577E-1,1.265954733E0,3.655319214E-1,1.423890782E0
8.795412620E-1,8.086563349E-1,1.066830635E0,-1.104698181E-1,1.343226062E0
8.981025640E-1,8.851319551E-1,8.486541510E-1,-1.521968842E-1,1.235652191E0
9.166817830E-1,1.055473328E0,6.321048737E-1,4.245281219E-2,1.231008837E0
9.352430330E-1,1.149190426E0,6.246306896E-1,-5.104351044E-2,1.308971953E0
9.537863140E-1,9.947490096E-1,6.220524311E-1,-4.444408417E-1,1.254592556E0
9.723476160E-1,8.117355108E-1,5.997422338E-1,-5.670032501E-1,1.157626007E0
9.909567830E-1,8.830818534E-1,6.284059882E-1,-2.477025986E-1,1.111793247E0
1.009518970E0,1.131705165E0,7.051043510E-1,-2.408695221E-2,1.333607479E0
1.028080533E0,1.345350742E0,6.570511460E-1,5.735111237E-2,1.498323723E0
1.046592668E0,1.586885452E0,5.680412054E-1,-3.226528168E-1,1.716094721E0
1.065153918E0,1.691741109E0,5.712480545E-1,-3.171167374E-1,1.813525667E0
1.083764074E0,1.332851887E0,6.580677629E-1,-3.047857285E-1,1.517379871E0
1.102324178E0,9.660120606E-1,8.250410557E-1,-4.496603012E-1,1.347615090E0
1.120885428E0,1.123955727E0,8.404325843E-1,-4.094657898E-1,1.461938999E0
1.139398970E0,1.240894914E0,6.676844954E-1,-3.729009628E-1,1.457627490E0
1.157960220E0,9.274383187E-1,4.486183524E-1,7.889652252E-2,1.033259368E0
1.176521470E0,4.841521382E-1,5.747442245E-1,5.641059875E-1,9.396540756E-1
1.195082720E0,4.292047024E-1,5.032030344E-1,6.217145920E-1,9.077218760E-1
1.213644022E0,7.706730366E-1,3.726055026E-1,6.430530548E-1,1.070648879E0
1.232205272E0,8.257724643E-1,5.232321620E-1,1.815347672E-1,9.942972040E-1
1.250814178E0,5.275002718E-1,4.678386450E-1,-3.495311737E-2,7.059399797E-1
1.269345793E0,1.483200788E-1,3.999814391E-1,-2.142782211E-1,4.773878439E-1
1.287889074E0,-1.235830784E-1,3.776641488E-1,-3.078489304E-1,5.026668385E-1
1.306450324E0,-8.486843109E-2,3.335473537E-1,-3.153743744E-1,4.668163277E-1
1.325011574E0,-1.120341420E-1,1.839079261E-1,-2.951450348E-1,3.653551229E-1
1.343620585E0,7.457125187E-2,3.625655174E-2,-1.049747467E-1,1.337725928E-1
1.362181835E0,5.864561796E-1,-1.604177356E-1,3.871669769E-1,7.208071646E-1
1.380743085E0,6.563422084E-1,-4.128574729E-1,6.945724487E-1,1.040993407E0
1.399256626E0,5.797195435E-2,-6.436066628E-1,1.090398788E0,1.267501401E0
1.417817876E0,-5.800712109E-1,-7.299028635E-1,1.042897224E0,1.398883634E0
1.436426887E0,-8.047894239E-1,-5.976536274E-1,5.007963181E-1,1.120568082E0
1.454989283E0,-4.253249764E-1,-3.636483848E-1,-2.740907669E-1,6.231109306E-1
1.473501678E0,-2.347201109E-2,-1.270609498E-1,-1.086931229E0,1.094584358E0
1.492062928E0,1.056745052E-1,1.092873216E-1,-1.296105385E0,1.304990417E0
1.510672199E0,7.194870710E-2,1.518042684E-1,-8.519973755E-1,8.684012207E-1
1.529203449E0,-1.972784996E-1,-1.516231894E-1,1.370000839E-1,2.840377105E-1
1.547764699E0,-6.312277913E-1,-2.389075756E-1,5.893278122E-1,8.960092770E-1
1.566307980E0,-1.050478339E0,-2.348131537E-1,-9.890747070E-2,1.080936930E0
1.584869230E0,-1.196210623E0,3.540375233E-1,-6.757526398E-1,1.418768498E0
1.603478293E0,4.856553674E-1,-3.789475560E-1,-6.403808594E-1,8.885662784E-1
1.622039543E0,4.771468043E-1,-1.405877471E-1,-3.828048706E-1,6.276731287E-1
1.640600793E0,4.338216782E-2,2.495473623E-2,-6.554498672E-1,6.573578020E-1
1.659114283E0,-2.487546206E-1,-1.525050402E-2,-7.066669464E-1,7.493261054E-1
1.677675585E0,-3.599290550E-1,-4.029682279E-2,-6.323823929E-1,7.287525296E-1
1.696284595E0,-4.034557939E-1,-9.130981565E-2,-2.514228821E-1,4.840738845E-1
1.714845845E0,-6.476634741E-1,-1.428368390E-1,7.513237000E-2,6.674692587E-1
1.733359387E0,-1.068963766E0,-5.930075049E-2,2.895383835E-1,1.109068342E0
1.751920637E0,-1.078194857E0,1.158422232E-1,3.175239563E-1,1.129931428E0
1.770481887E0,-9.102725983E-1,3.178334534E-1,2.947626114E-1,1.008215902E0
1.789043137E0,-6.729648709E-1,3.181968331E-1,5.646133423E-2,7.465378921E-1
1.807622408E0,-4.220995307E-1,3.480136991E-1,-4.119777679E-2,5.486153528E-1
1.826165689E0,-5.428193808E-1,4.398807287E-1,1.118001938E-1,7.075642861E-1
1.844726939E0,-8.995284438E-1,4.804136455E-1,4.591293335E-1,1.118368650E0
1.863335949E0,-1.092146873E0,6.498541832E-1,8.907299042E-1,1.551932671E0
1.881897199E0,-9.330554008E-1,6.693218946E-1,6.987113953E-1,1.344165836E0
1.900458501E0,-9.883646965E-1,6.119720936E-1,1.583423615E-1,1.173220747E0
1.918971991E0,-9.539917111E-1,6.749153733E-1,-8.388519287E-2,1.171600474E0
1.937533241E0,-8.199992776E-1,8.164724708E-1,2.281379700E-2,1.157387826E0
1.956143345E0,-8.164021373E-1,7.402781844E-1,2.483987808E-1,1.129701817E0
1.974703762E0,-1.137873769E0,6.494085789E-1,3.611335754E-1,1.359009078E0
1.993217043E0,-1.190919876E0,6.189146638E-1,1.611480713E-1,1.351781866E0
2.011778293E0,-1.056387424E0,6.625729203E-1,-4.736328125E-2,1.247878418E0
2.030387564E0,-9.469694495E-1,7.083019018E-1,-2.283992767E-1,1.204412285E0
2.048948553E0,-6.790565848E-1,7.489039302E-1,-2.348556519E-1,1.037849758E0
2.067473397E0,-5.138985515E-1,8.337988853E-1,-3.139495850E-3,9.794499267E-1
2.086023345E0,-6.045869589E-1,8.138610721E-1,5.700111389E-2,1.015452787E0
2.104584647E0,-9.058043957E-1,5.591968894E-1,2.643127441E-1,1.096833620E0
2.123163866E0,-1.054983974E0,2.832940221E-1,4.524393082E-1,1.182348517E0
2.141725116E0,-6.697300673E-1,-1.372963786E-1,3.741989136E-1,7.793673623E-1
2.160286418E0,-3.215418458E-1,-3.039789200E-1,6.001586914E-1,7.456425399E-1
2.178829699E0,-1.173385158E-1,-2.503515184E-1,1.239115715E0,1.269587321E0
2.197390949E0,6.539739668E-2,-3.411753178E-1,1.342299461E0,1.386522723E0
2.216001105E0,-2.970215976E-1,-2.111936063E-1,9.330911636E-1,1.001740330E0
2.234562355E0,-6.439665556E-1,5.262583494E-2,-9.537696838E-2,6.531149740E-1
2.253061835E0,-5.187758803E-1,2.272812426E-1,-1.374910355E0,1.486998205E0
2.271636001E0,-2.831739783E-1,4.032842219E-1,-2.019179821E0,2.078439996E0
2.290245012E0,-6.443904340E-2,5.583915710E-1,-1.962085724E0,2.041012965E0
2.308806262E0,1.455044895E-1,3.644711673E-1,-1.486527443E0,1.537457195E0
2.327367564E0,3.042548597E-1,1.302030385E-1,-7.565746307E-1,8.257899386E-1
2.345881053E0,2.629665434E-1,7.369962335E-2,-1.338758469E-1,3.041476283E-1
2.364442355E0,3.180692792E-1,3.629629910E-1,4.128561020E-1,6.351065739E-1
2.383052408E0,6.751938462E-1,6.497337818E-1,6.759443283E-1,1.155396664E0
2.401613658E0,8.932297230E-1,8.768774271E-1,6.344175339E-1,1.403302878E0
2.420173866E0,5.596110225E-1,1.027923226E0,-5.201911926E-2,1.171536019E0
2.438687355E0,1.066099107E-1,1.163407803E0,-9.675617218E-1,1.516924215E0
2.457248658E0,-9.624916315E-2,1.199241519E0,-1.466388702E0,1.896770927E0
2.475827876E0,1.940998435E-2,1.182947874E0,-1.704785347E0,2.075098913E0
2.494389126E0,2.575816512E-1,1.108917713E0,-1.547026634E0,1.920765006E0
2.512932460E0,3.703811169E-1,9.947755933E-1,-8.602027893E-1,1.366275774E0
2.531493710E0,2.667848468E-1,8.603302836E-1,-1.746454239E-1,9.175202317E-1
2.550054960E0,6.177207828E-2,7.401140928E-1,2.429857254E-1,7.814260828E-1
2.569003293E0,5.833631754E-2,7.992097139E-1,3.720684052E-1,8.835010984E-1
2.587935637E0,2.730874419E-1,9.516555071E-1,3.311758041E-1,1.043983893E0
2.606819335E0,3.464712799E-1,1.078650713E0,2.623157501E-1,1.162901226E0
2.625751626E0,3.187190890E-1,1.218712330E0,1.096792221E-1,1.264464761E0
2.644734230E0,2.532431781E-1,1.358181477E0,-2.141475677E-2,1.381755269E0
2.663666366E0,4.374856353E-1,1.288064122E0,-2.719402313E-2,1.360603682E0
2.682598762E0,4.929648936E-1,1.139942527E0,6.104087830E-2,1.243466662E0
2.701481210E0,4.553086758E-1,1.093353152E0,2.138853073E-1,1.203525667E0
2.720416887E0,5.383235216E-1,9.662864804E-1,5.462446213E-1,1.233647017E0
2.739364283E0,4.688877463E-1,6.736226082E-1,1.004426956E0,1.297110885E0
2.758296626E0,1.230454445E-2,5.161931515E-1,1.677844048E0,1.755496346E0
2.777210689E0,-3.895167708E-1,6.540216208E-1,2.357452393E0,2.477306880E0
2.795991730E0,2.310404330E-1,7.594120502E-1,2.651683807E0,2.767943886E0
2.814600741E0,1.306050420E0,5.993449688E-1,2.358340263E0,2.761657272E0
2.833162251E0,1.896985769E0,1.205307841E-1,1.463985443E0,2.399236557E0
2.851723241E0,1.519850731E0,-2.031457126E-1,6.698732376E-1,1.673303493E0
2.870236783E0,7.759292722E-1,-3.359999061E-1,-8.705615997E-2,8.500240863E-1
2.888798033E0,-4.127718508E-2,-4.927574992E-1,-4.552164078E-1,6.721128900E-1
2.907408241E0,-6.923721433E-1,-4.349750876E-1,-2.157840729E-1,8.456626264E-1
2.925968345E0,-3.041177392E-1,-7.173165083E-1,2.378177643E-2,7.794845382E-1
2.944530741E0,1.410616040E-1,-8.228425980E-1,-3.680229187E-3,8.348543952E-1
2.963043085E0,2.072070837E-1,-8.897084594E-1,1.135625839E-1,9.205500414E-1
2.981607460E0,-1.719552875E-1,-1.052680969E0,2.139282227E-1,1.087874592E0
3.000213397E0,-7.147628665E-1,-1.152771831E0,-5.809879303E-2,1.357624513E0
3.018774647E0,-7.069542408E-1,-1.104191065E0,-4.121065140E-1,1.374355844E0
3.037288189E0,-4.556491971E-1,-9.470492601E-1,-4.903335571E-1,1.159717849E0
3.055849439E0,-2.903338075E-1,-8.142857552E-1,-6.751537323E-1,1.096899071E0
3.074428658E0,-1.977991462E-1,-7.724859715E-1,-1.266560555E0,1.496674553E0
3.092989908E0,-4.262299240E-1,-5.946114659E-1,-1.911213875E0,2.046453815E0
3.111551210E0,-5.984472632E-1,-4.481154680E-1,-2.183448792E0,2.307898443E0
3.130094491E0,-7.743648291E-1,-3.287037611E-1,-1.794601917E0,1.981989680E0
3.148655741E0,-9.280992150E-1,-2.560469508E-1,-1.152828217E0,1.501979058E0
3.167264751E0,-9.300047755E-1,-2.376883626E-1,-6.458730698E-1,1.156960095E0
3.185827199E0,-8.025237322E-1,-1.326599121E-1,-5.866775513E-1,1.002912530E0
3.204387303E0,-6.107398868E-1,4.106962681E-2,-6.869401932E-1,9.200960561E-1
3.222900845E0,-2.890979052E-1,1.395008564E-1,-7.219667435E-1,7.901101609E-1
3.241462095E0,-2.692722678E-1,2.334421277E-1,-5.846233368E-1,6.846803832E-1
3.260071105E0,-3.671681881E-1,2.966840863E-1,-1.648397446E-1,5.000060668E-1
3.278632355E0,-4.488019943E-1,5.279687047E-1,3.543386459E-1,7.782866177E-1
3.297145897E0,-3.656092286E-1,6.505784392E-1,5.151500702E-1,9.068086945E-1
3.315707147E0,-3.760373294E-1,7.379780412E-1,3.650674820E-1,9.051463577E-1
3.334316158E0,-5.070049763E-1,7.585859895E-1,2.977037430E-1,9.597574006E-1
3.352877460E0,-4.461484551E-1,7.712194920E-1,4.807662964E-1,1.012405146E0
3.371439751E0,-4.448068142E-1,7.233828306E-1,7.304468155E-1,1.120128730E0
3.389952199E0,-5.991816521E-1,6.210798621E-1,1.006576538E0,1.325879019E0
3.408513501E0,-6.895961165E-1,4.738928676E-1,1.162113190E0,1.432000112E0
3.427092720E0,-7.200051546E-1,4.468944669E-1,1.190762520E0,1.461518890E0
3.445653970E0,-6.304513216E-1,4.227440953E-1,1.239091873E0,1.453110494E0
3.464215220E0,-6.068046093E-1,4.538743496E-1,1.316237450E0,1.518780690E0
3.482758553E0,-6.305749416E-1,5.302958488E-1,1.179324150E0,1.438625697E0
3.501323137E0,-5.810340643E-1,6.031274199E-1,7.750492096E-1,1.141080429E0
3.519928814E0,-3.353531361E-1,4.331168532E-1,6.122102737E-1,8.214945853E-1
3.538490064E0,-1.500044316E-1,2.672177553E-1,7.251386642E-1,7.872310592E-1
3.557003605E0,-1.372471750E-1,8.581256866E-2,8.047304153E-1,8.208481135E-1
3.575564855E0,-2.249459624E-1,-2.514058352E-2,6.628227234E-1,7.004046670E-1
3.594173918E0,-2.382498384E-1,-1.292425394E-2,4.839525223E-1,5.395739668E-1
3.612736314E0,-1.464712173E-1,2.058631182E-2,3.214855194E-1,3.538792914E-1
3.631296470E0,-5.219212174E-2,-5.987012386E-2,-7.569026947E-2,1.097153872E-1
3.649809908E0,9.263691306E-2,-2.605338693E-1,-3.232088089E-1,4.253509479E-1
3.668371210E0,1.438176334E-1,-5.119796395E-1,5.075454712E-2,5.342122116E-1
3.686980168E0,3.429846168E-1,-6.923925877E-1,3.929033279E-1,8.668442582E-1
3.705542616E0,4.921717346E-1,-6.027810574E-1,3.230237961E-1,8.425689243E-1
3.724102772E0,6.518086195E-1,-4.715004861E-1,-5.418872833E-2,8.062900242E-1
3.742616262E0,6.163408756E-1,-3.640438020E-1,-3.945436478E-1,8.173546689E-1
3.761177512E0,4.312956631E-1,-2.095710635E-1,-4.580640793E-1,6.631430316E-1
3.779738814E0,4.015876651E-1,-1.509032845E-1,-3.935537338E-1,5.821760863E-1
3.798347772E0,3.948394060E-1,1.959317923E-2,-6.188364029E-1,7.343299958E-1
3.816861314E0,5.809550881E-1,2.028655410E-1,-6.825237274E-1,9.189678344E-1
3.835422616E0,6.013590097E-1,2.230277658E-1,-8.436784744E-1,1.059795929E0
3.854032720E0,5.112143159E-1,1.605920792E-1,-1.185445786E0,1.300927209E0
3.872592876E0,4.749585688E-1,3.703695536E-2,-1.630496025E0,1.698668498E0
3.891154178E0,4.032991529E-1,-2.337038517E-2,-1.745532990E0,1.791670114E0
3.909667668E0,4.856084585E-1,1.230299473E-2,-1.529264450E0,1.604561216E0
3.928228918E0,3.964241147E-1,4.101490974E-2,-8.122978210E-1,9.047994538E-1
3.946837980E0,3.786439896E-1,5.974638462E-2,3.242492676E-3,3.833424253E-1
3.965399178E0,3.262717128E-1,-1.004099846E-3,2.930374146E-1,4.385489313E-1
3.983960480E0,1.845925152E-1,1.585453749E-1,-2.682971954E-2,2.448078153E-1
4.002474022E0,4.299527407E-1,4.900451899E-1,-4.396066666E-1,7.862936275E-1
4.021038449E0,5.034751892E-1,7.941600084E-1,-4.650812149E-1,1.049036664E0
4.039644283E0,3.712537885E-1,8.501464128E-1,-3.817005157E-1,1.003131887E0
4.058205533E0,1.717790961E-1,8.287667632E-1,-2.062206268E-1,8.711425558E-1
4.076719074E0,-1.120984256E-1,8.821001053E-1,2.870359421E-1,9.343748096E-1
4.095280324E0,-1.606136560E-3,7.941767573E-1,6.450357437E-1,1.023127759E0
4.113889335E0,2.473376989E-1,6.514154077E-1,6.921129227E-1,9.821090919E-1
4.132420793E0,4.231195152E-1,5.614338517E-1,5.976181030E-1,9.227055278E-1
4.150982095E0,5.212370753E-1,4.421467781E-1,5.616483688E-1,8.846642031E-1
4.169525376E0,3.716081381E-1,5.224173665E-1,6.378650665E-1,9.043695905E-1
4.188086678E0,3.633080423E-1,4.410998821E-1,5.625238419E-1,8.018696355E-1
4.206696783E0,-1.116546541E-1,6.151545048E-1,4.376220703E-1,7.631480217E-1
4.225256939E0,-4.611198306E-1,6.893460751E-1,6.716699600E-1,1.067225395E0
4.243819387E0,-3.268418908E-1,6.338278055E-1,9.973068237E-1,1.226044130E0
4.262331730E0,1.074944139E-1,3.560046554E-1,1.191811562E0,1.248482744E0
4.280896158E0,3.671464920E-1,5.291944742E-2,1.070797920E0,1.133227780E0
4.299501991E0,4.741794169E-1,-1.739546657E-1,7.345418930E-1,8.914359975E-1
4.318063241E0,5.439678431E-1,-3.234370947E-1,3.394174576E-1,7.181342347E-1
4.336576783E0,3.709517717E-1,-2.972533107E-1,-2.911949158E-2,4.762485616E-1
4.355138085E0,-6.289426982E-2,-1.886920333E-1,-1.861047745E-1,2.723882517E-1
4.373699335E0,-3.337958455E-1,-3.294980526E-1,-3.243513107E-1,5.702564387E-1
4.392260585E0,-5.634171963E-1,-5.031212568E-1,-4.644384384E-1,8.867203613E-1
4.410839855E0,-6.758670807E-1,-5.222273469E-1,-8.113298416E-1,1.178038125E0
4.429383137E0,-5.728778839E-1,-5.133736730E-1,-1.015045166E0,1.273600521E0
4.447944439E0,-1.654328704E-1,-6.439106464E-1,-8.934202194E-1,1.113637573E0
4.466553397E0,6.015822291E-2,-5.723131895E-1,-5.412826538E-1,7.900305753E-1
4.485114647E0,-7.723487914E-2,-4.455902576E-1,-8.947181702E-2,4.610001196E-1
4.503677043E0,-3.485721350E-1,-4.544577599E-1,6.224060059E-2,5.761148159E-1
4.522189491E0,-5.365232825E-1,-3.905478120E-1,-3.296155930E-1,7.409664400E-1
4.540750741E0,-5.874140263E-1,-2.194930315E-1,-8.254871368E-1,1.036658788E0
4.559359751E0,-5.820482969E-1,-1.540007591E-1,-1.120825768E0,1.272299829E0
4.577922251E0,-5.283883214E-1,-1.320040226E-1,-1.275631905E0,1.387031375E0
4.596434543E0,-5.018025041E-1,-8.531832695E-2,-1.137967110E0,1.246617067E0
4.614995793E0,-4.433056712E-1,7.749402523E-2,-8.549041748E-1,9.661192422E-1
4.633604803E0,-3.358059525E-1,1.444156170E-1,-6.104030609E-1,7.114867567E-1
4.652167199E0,-2.984513044E-1,1.674517393E-1,-5.618238449E-1,6.578444336E-1
4.670727355E0,-3.090924621E-1,1.311106682E-1,-4.430551529E-1,5.559010936E-1
4.689240897E0,-5.148994923E-1,1.665692329E-1,-4.532213211E-1,7.058869332E-1
4.707802147E0,-8.114423156E-1,3.422185183E-1,-5.910749435E-1,1.060623276E0
4.726411210E0,-7.527158260E-1,3.949218988E-1,-4.857587814E-1,9.790332041E-1
4.744972408E0,-5.854308009E-1,4.358230829E-1,5.471134186E-2,7.318909162E-1
4.763533710E0,-3.721138239E-1,4.533374310E-1,4.179792404E-1,7.202014785E-1
4.782047251E0,-1.246361732E-1,3.847857714E-1,4.505577087E-1,6.054721418E-1
4.800611626E0,-5.707342923E-2,3.330794573E-1,5.792598724E-1,6.706275427E-1
4.819187720E0,-3.742995262E-1,2.650551796E-1,8.254327774E-1,9.442953212E-1
4.837749022E0,-4.912017584E-1,6.866800785E-2,1.118720055E0,1.223735684E0
4.856292303E0,-5.032660961E-1,-1.076138020E-2,1.188751221E0,1.290938432E0
4.874853553E0,-4.429523945E-1,4.408860207E-2,9.081802368E-1,1.011405938E0
4.893462616E0,-2.480098158E-1,1.484771967E-1,4.190721512E-1,5.090931296E-1
4.912023866E0,1.176685095E-2,1.910314560E-1,1.605443954E-1,2.498118870E-1
4.930585116E0,5.400860310E-1,5.316448212E-2,4.425201416E-1,7.002452847E-1
4.949098658E0,7.821093202E-1,-2.238867879E-1,8.496904373E-1,1.176347789E0
4.967659908E0,4.817301035E-1,-4.514350891E-1,1.141807556E0,1.318932154E0
4.986270064E0,7.443022728E-2,-5.205173492E-1,1.405877113E0,1.500989216E0
5.004830220E0,1.127216220E-2,-4.260947704E-1,1.425864220E0,1.488211204E0
5.023391470E0,-7.480007410E-2,-1.789630055E-1,6.876478195E-1,7.144804631E-1
5.041904960E0,-6.083378196E-2,2.572846413E-2,-4.131422043E-1,4.183887951E-1
5.060469335E0,-5.959621072E-2,7.752794027E-2,-1.154587746E0,1.158721344E0
5.079075272E0,-1.279207170E-1,7.921594381E-2,-9.798393250E-1,9.913243558E-1
5.097636522E0,1.271831989E-2,-2.069741488E-2,-4.398708344E-1,4.405411326E-1
5.116150064E0,1.058434248E-1,-7.202756405E-2,-1.122159958E-1,1.702446189E-1
5.134711314E0,9.699746966E-2,1.558349133E-1,-1.561660767E-1,2.409997361E-1
5.153320324E0,3.195902705E-1,3.537353873E-1,-2.346277237E-1,5.313349546E-1
5.171851835E0,4.518494308E-1,5.276724696E-1,-1.264066696E-1,7.061053671E-1
5.190413085E0,4.294393361E-1,6.470125318E-1,-6.085014343E-2,7.789390859E-1
5.208956366E0,1.850495338E-1,7.138972878E-1,-4.096794128E-2,7.386278087E-1
5.227517668E0,-5.843076110E-2,6.905825734E-1,-2.322025299E-1,7.309148100E-1
5.246126678E0,-2.247899175E-1,6.181820035E-1,-7.823619843E-1,1.022139800E0
5.264687980E0,-3.026465476E-1,5.801020265E-1,-1.412444115E0,1.556634726E0
5.283249178E0,-1.760728806E-1,6.275984645E-1,-1.679915428E0,1.801942657E0
5.301762720E0,3.822726011E-2,6.627321839E-1,-1.496070862E0,1.636735560E0
5.320327251E0,2.941402197E-1,6.286258101E-1,-9.953155518E-1,1.213400975E0
5.338933033E0,2.394572198E-1,6.001594663E-1,-4.353036880E-1,7.791151686E-1
5.357494283E0,-1.275088936E-1,5.863423944E-1,-2.380762100E-1,6.455510848E-1
5.376007824E0,-3.416914046E-1,6.301233768E-1,-2.270250320E-1,7.518968355E-1
5.394569074E0,-1.504054964E-1,7.865701318E-1,-1.705474854E-1,8.187800867E-1
5.413178345E0,9.307923913E-2,8.924702406E-1,-8.426666260E-2,9.012589781E-1
5.431740428E0,8.041289449E-2,8.163834214E-1,1.526279449E-1,8.344120169E-1
5.450300585E0,-2.256341279E-1,6.840724945E-1,2.146816254E-1,7.516343111E-1
5.468814126E0,-4.617601633E-1,5.818215609E-1,2.261419296E-1,7.764527992E-1
5.487375428E0,-2.948150933E-1,4.738919139E-1,1.710081100E-1,5.837236152E-1
5.505954647E0,-7.728002965E-2,4.221525192E-1,1.978197098E-1,4.725649056E-1
5.524515949E0,-4.093898833E-2,3.646159172E-1,3.438177109E-1,5.028234145E-1
5.543077199E0,-2.584866285E-1,2.864022851E-1,6.110115051E-1,7.226179249E-1
5.561620480E0,-4.822423458E-1,2.533678412E-1,1.050271034E0,1.183140815E0
5.580273501E0,-7.464566231E-1,4.209367633E-1,1.569495201E0,1.788211519E0
5.598790741E0,-7.343542576E-1,4.593899846E-1,1.783979416E0,1.983153522E0
5.617351991E0,-2.801795602E-1,3.679145575E-1,1.634701729E0,1.698855924E0
5.635865585E0,2.602495253E-1,2.053425312E-1,1.425815582E0,1.463846114E0
5.654426835E0,6.145098805E-2,4.048323631E-2,1.343816757E0,1.345830076E0
5.673036939E0,-5.013755560E-1,-2.285434604E-1,1.069329262E0,1.202944151E0
5.691597095E0,-8.451010585E-1,-3.676480055E-1,6.828298569E-1,1.147003692E0
5.710159491E0,-4.489557147E-1,-4.720779657E-1,2.323617935E-1,6.916724966E-1
5.728671887E0,-9.731022269E-2,-5.254851580E-1,-1.955986023E-2,5.347770739E-1
5.747233189E0,-2.136264294E-1,-6.757179499E-1,-1.932401657E-1,7.345561658E-1
5.765794439E0,-5.126920342E-1,-8.446310759E-1,-1.426620483E-1,9.983021769E-1
5.784355741E0,-6.595637798E-1,-8.724862337E-1,-2.399549484E-1,1.119747733E0
5.802934960E0,-6.109530330E-1,-8.685184717E-1,-5.186309814E-1,1.181763952E0
5.821478241E0,-2.405728996E-1,-8.341230154E-1,-6.894092560E-1,1.108567385E0
5.840127564E0,1.023711562E-1,-6.894571185E-1,-8.775606155E-1,1.120688898E0
5.858648553E0,1.217137873E-1,-4.547849298E-1,-1.030103683E0,1.132588706E0
5.877209803E0,1.436369121E-2,-3.099021316E-1,-1.196731567E0,1.236289647E0
5.895723345E0,-1.187690347E-1,-2.380597591E-1,-1.343434334E0,1.369523399E0
5.914284595E0,-3.676903546E-1,-1.994289160E-1,-1.435482979E0,1.495185431E0
5.932894751E0,-4.984914660E-1,-1.863077283E-1,-1.323883057E0,1.426839395E0
5.951454908E0,-3.029192090E-1,-1.363562346E-1,-9.972667694E-1,1.051139420E0
5.970016105E0,-1.872563362E-1,-3.913319111E-2,-9.448032379E-1,9.639758817E-1
5.988529647E0,-1.494554877E-1,2.326154709E-2,-9.500875473E-1,9.620521763E-1
6.007090949E0,1.710441709E-2,1.561390162E-1,-8.598966599E-1,8.741248304E-1
6.025701053E0,1.494548619E-1,3.152239323E-1,-8.169336319E-1,8.883036880E-1
6.044261210E0,1.832590997E-1,4.727699757E-1,-6.401805878E-1,8.166557001E-1
6.062822512E0,2.648545802E-2,5.532747507E-1,-1.428918839E-1,5.720424108E-1
6.081336001E0,-4.600527883E-2,4.929139614E-1,4.939441681E-1,6.993293217E-1
6.099900585E0,4.602462053E-3,4.283729792E-1,9.286012650E-1,1.022655808E0
6.118506262E0,1.277961582E-1,3.303107023E-1,1.054293633E0,1.112192466E0
6.137067564E0,5.320999026E-1,2.020351887E-1,7.305946350E-1,9.261301445E-1
6.155581105E0,6.958991289E-1,2.125589848E-1,5.402173996E-1,9.062514874E-1
6.174142355E0,4.789423048E-1,2.870056629E-1,7.269887924E-1,9.166627985E-1
6.192721574E0,3.108175099E-1,9.539186954E-2,1.384623528E0,1.422283181E0
6.211282876E0,3.832311034E-1,-2.166511416E-1,1.925292015E0,1.974981807E0
6.229844126E0,4.255013466E-1,-3.838679790E-1,2.058004379E0,2.136302424E0
6.248387408E0,2.882193625E-1,-6.004962921E-1,1.884259224E0,1.998524211E0
6.266948710E0,2.359560132E-1,-7.645516396E-1,1.653137207E0,1.836593879E0
6.285558814E0,3.433784246E-1,-7.232466936E-1,1.703451157E0,1.882216875E0
6.304118970E0,4.330343604E-1,-5.723545551E-1,1.252806664E0,1.443825831E0
6.322681314E0,4.600577652E-1,-4.084427953E-1,-1.315879822E-2,6.153469089E-1
6.341193762E0,2.196562737E-1,-1.674004197E-1,-1.259039879E0,1.288973699E0
6.359755012E0,7.713574171E-2,2.203100920E-2,-1.845208645E0,1.846951605E0
6.378364074E0,6.560790539E-2,9.116506577E-2,-1.547146797E0,1.551218450E0
6.396925324E0,2.286085039E-1,8.959931135E-2,-9.447021484E-1,9.760901772E-1
6.415438866E0,3.332059979E-1,-1.392859221E-2,-6.020956039E-1,6.882872649E-1
6.434000116E0,5.295346975E-1,-9.034240246E-2,-6.460456848E-1,8.402046015E-1
6.452609126E0,8.139932752E-1,2.686738968E-3,-8.677959442E-1,1.189815982E0
6.471170376E0,1.316433549E0,1.794680357E-1,-8.996448517E-1,1.604545706E0
6.489731678E0,1.486874819E0,2.773159146E-1,-6.843423843E-1,1.660128110E0
6.508245168E0,1.149318457E0,2.615723610E-1,-2.936429977E-1,1.214734220E0
6.526806470E0,5.998493433E-1,2.152650952E-1,-7.663726807E-3,6.373515738E-1
6.545385689E0,2.020449489E-1,2.588670254E-1,1.851673126E-1,3.769896973E-1
6.563946939E0,3.472816944E-1,3.789256215E-1,-3.944864273E-1,6.479264952E-1
6.582508241E0,5.546038151E-1,6.423698068E-1,-1.062491417E0,1.359820713E0
6.601051522E0,9.017079473E-1,7.743389606E-1,-1.349070549E0,1.797962568E0
6.619612824E0,1.077208877E0,8.455247879E-1,-1.156578064E0,1.792474253E0
6.638221835E0,1.037152648E0,8.885356784E-1,-6.623611450E-1,1.517861507E0
6.656783085E0,8.644680977E-1,9.362274408E-1,-1.054468155E-1,1.278650047E0
6.675296626E0,7.304357290E-1,9.175865054E-1,-8.987426758E-2,1.176256236E0
6.693857876E0,6.377804279E-1,9.156893492E-1,-9.024238586E-2,1.119551047E0
6.712466939E0,6.110110283E-1,1.066187501E0,1.730728149E-2,1.228979172E0
6.731028137E0,7.305999994E-1,1.035346746E0,2.800846100E-2,1.267479277E0
6.749589439E0,9.461550713E-1,1.078180075E0,-1.504230499E-2,1.434541029E0
6.768102928E0,1.177282691E0,1.118856192E0,-1.097297668E-2,1.624177982E0
6.786664230E0,1.147198677E0,1.005619049E0,1.933803558E-1,1.537768005E0
6.805273241E0,1.029562831E0,8.366923928E-1,5.111207962E-1,1.421723690E0
6.823834491E0,9.791908264E-1,7.384940386E-1,7.339191437E-1,1.429274441E0
6.842395793E0,1.214540720E0,6.113640070E-1,8.466978073E-1,1.601802824E0
6.860909283E0,1.411791086E0,3.735423088E-1,9.701080322E-1,1.753224892E0
6.879562303E0,1.343499660E0,1.068331003E-1,1.492053032E0,2.010628484E0
6.898049803E0,8.911219835E-1,-2.221814394E-1,2.168962479E0,2.355389822E0
6.916611053E0,6.175882220E-1,-4.655124545E-1,2.046445847E0,2.187706027E0
6.935154387E0,6.582078934E-1,-5.605226755E-1,1.154947281E0,1.442680326E0
6.953715637E0,4.037028849E-1,-4.972198009E-1,1.765146255E-1,6.643500303E-1
6.972324908E0,2.654685974E-1,-5.563684702E-1,-2.615356445E-1,6.696419522E-1
6.990887095E0,2.227511108E-1,-6.852543354E-1,-1.633844376E-1,7.388410086E-1
7.009447199E0,-6.048470736E-3,-7.367300987E-1,-3.320960999E-1,8.081433300E-1
7.027960741E0,-2.666392922E-1,-8.174816370E-1,-7.144918442E-1,1.117976446E0
7.046521991E0,-2.932933271E-1,-8.602126241E-1,-6.565170288E-1,1.121160713E0
7.065132147E0,-2.604553849E-2,-9.885026217E-1,-1.729536057E-1,1.003856938E0
7.083693449E0,3.375383615E-1,-1.162533164E0,3.470382690E-1,1.259305786E0
7.102253501E0,2.607560158E-1,-1.112084270E0,4.846248627E-1,1.240800701E0
7.120767043E0,-5.716775358E-2,-8.727016449E-1,2.418470383E-1,9.073953400E-1
7.139328345E0,-3.636835515E-2,-5.029916167E-1,-7.427787781E-2,5.097454530E-1
7.157938449E0,1.321111172E-1,-1.356084347E-1,-5.753049850E-1,6.056556948E-1
7.176498605E0,1.801011860E-1,3.195798397E-2,-1.157712936E0,1.172073800E0
7.195012147E0,1.038124412E-2,1.433380842E-1,-1.276447296E0,1.284512077E0
7.213573397E0,-1.613043249E-1,1.514388323E-1,-8.554229736E-1,8.835730128E-1
7.232182720E0,-1.361719668E-1,-3.766942024E-2,-4.187841415E-1,4.419750524E-1
7.250713918E0,-3.774409890E-1,5.077540874E-2,-2.926816940E-1,4.803149137E-1
7.269275168E0,-3.440575004E-1,1.258562803E-1,-4.561071396E-1,5.850205891E-1
7.287818501E0,-2.885145843E-1,1.071420908E-1,-6.846876144E-1,7.506778419E-1
7.306379751E0,-4.158947468E-1,1.507673264E-1,-6.275520325E-1,7.678025661E-1
7.324988762E0,-6.395477057E-1,1.594284773E-1,-1.657857895E-1,6.796496415E-1
7.343550064E0,-6.754608154E-1,5.119180679E-2,2.365074158E-1,7.174982035E-1
7.362465428E0,-7.761746645E-1,1.577386856E-1,3.879442215E-1,8.819463259E-1
7.381397772E0,-7.924922705E-1,2.775279284E-1,2.785778046E-1,8.846871441E-1
7.400348658E0,-7.021440268E-1,3.417820930E-1,-1.529693604E-3,7.809120139E-1
7.419280741E0,-6.056213379E-1,3.903102875E-1,7.648944855E-2,7.245481082E-1
7.438213189E0,-4.049584866E-1,3.579115868E-1,4.900283813E-1,7.295340255E-1
7.457127199E0,-4.910318851E-1,3.068858385E-1,5.967388153E-1,8.314977112E-1
7.476059491E0,-6.802772284E-1,3.030494452E-1,5.228843689E-1,9.099583160E-1
7.495040585E0,-6.943362951E-1,3.092464209E-1,6.269636154E-1,9.853017886E-1
7.513973033E0,-5.737373829E-1,3.286616802E-1,7.777929306E-1,1.020859896E0
7.532905376E0,-4.516386390E-1,2.645375729E-1,7.223730087E-1,8.920652170E-1
7.551789022E0,-4.662830234E-1,9.815382957E-2,4.801540375E-1,6.764628089E-1
7.570721314E0,-3.333354592E-1,-1.634188890E-1,4.899291992E-1,6.146941369E-1
7.589439126E0,-1.354407966E-1,-2.983384132E-1,5.169563293E-1,6.120407377E-1
7.608000376E0,-8.005499840E-3,-3.503566980E-1,3.538532257E-1,4.980220971E-1
7.626561626E0,1.165475249E-1,-3.886481524E-1,2.913246155E-1,4.995004940E-1
7.645122928E0,7.460916042E-2,-3.841645718E-1,6.552600861E-1,7.632265230E-1
7.663687355E0,-1.938402653E-2,-4.038062692E-1,7.398052216E-1,8.430581293E-1
7.682263397E0,-2.777609229E-1,-4.033967853E-1,3.594055176E-1,6.074968500E-1
7.700824699E0,-5.032184720E-1,-3.755109310E-1,-7.535552979E-2,6.323889197E-1
7.719367980E0,-5.583271384E-1,-3.794242144E-1,-3.128156662E-1,7.440064307E-1
7.737929283E0,-2.363216579E-1,-3.729018569E-1,-5.118780136E-1,6.759606658E-1
7.756490533E0,2.197854519E-1,-2.806814909E-1,-6.996536255E-1,7.852406891E-1
7.775051783E0,4.740009308E-1,3.167629242E-3,-7.435884476E-1,8.818223719E-1
7.793661991E0,5.878990889E-1,7.610070705E-2,-4.300527573E-1,7.323674148E-1
7.812174335E0,3.511461318E-1,6.137692928E-2,1.351928711E-2,3.567260916E-1
7.830735585E0,-6.121587753E-2,1.566798687E-1,1.098632812E-1,2.009126812E-1
7.849344647E0,-1.996941715E-1,2.446430922E-1,-3.511390686E-1,4.722569747E-1
7.867905897E0,-6.955167651E-2,3.818675280E-1,-1.069502831E0,1.137759443E0
7.886419439E0,2.361023426E-2,5.399025679E-1,-1.523574829E0,1.616580492E0
7.904980689E0,-2.641424537E-2,6.370528936E-1,-1.566125870E0,1.690941850E0
7.923559908E0,-2.351850122E-1,7.089041471E-1,-1.302456856E0,1.501416312E0
7.942121158E0,-1.359406859E-1,6.580544710E-1,-9.250631332E-1,1.143353557E0
7.960682512E0,-9.203207493E-2,7.310055494E-1,-6.539859772E-1,9.851581977E-1
7.979225741E0,5.551177263E-2,7.404265404E-1,-4.220523834E-1,8.540733182E-1
7.997787043E0,1.255636215E-1,6.910431385E-1,-1.938619614E-1,7.286215083E-1
8.016397199E0,9.587079287E-2,6.478613019E-1,-1.111316681E-2,6.550106701E-1
8.034957303E0,9.881961346E-2,7.330847383E-1,-2.968597412E-2,7.403106149E-1
8.053519699E0,2.985696495E-2,8.334556222E-1,-9.184646606E-2,8.390324701E-1
8.072032095E0,-1.523708254E-1,8.626272082E-1,5.434226990E-2,8.776648854E-1
8.090593397E0,-2.596287727E-1,7.475425601E-1,3.067684174E-1,8.487248321E-1
8.109202408E0,-2.980537415E-1,6.022739410E-1,1.994504929E-1,7.009639306E-1
8.127763658E0,-3.192302585E-1,5.325646400E-1,-8.297634125E-2,6.264328591E-1
8.146277199E0,-4.415628016E-1,4.551173449E-1,-1.467304230E-1,6.508758118E-1
8.164838449E0,-4.720367193E-1,3.350985050E-1,8.408260345E-2,5.849611582E-1
8.183447772E0,-4.403653145E-1,2.692465782E-1,4.313602448E-1,6.726715326E-1
8.202008762E0,-3.932226300E-1,2.049247026E-1,6.331529617E-1,7.729817873E-1
8.220570272E0,-4.637217522E-1,2.443825006E-1,6.449613571E-1,8.311051812E-1
8.239083553E0,-6.398612857E-1,3.220891953E-1,5.431404114E-1,8.989802117E-1
8.257644803E0,-5.451834798E-1,3.512535095E-1,5.522575378E-1,8.518171416E-1
8.276224335E0,-2.425605357E-1,2.937805653E-1,7.520151138E-1,8.430120790E-1
8.294785585E0,-1.677598804E-1,1.996256113E-1,1.305726051E0,1.331508274E0
8.313346574E0,-1.920386702E-1,-7.306635380E-2,1.899251938E0,1.910333863E0
8.331889855E0,-4.095366895E-1,-3.505749106E-1,2.022383690E0,2.093002355E0
8.350451158E0,-4.895628393E-1,-4.950484037E-1,1.496362686E0,1.650407824E0
8.369060428E0,-4.246644378E-1,-4.857450128E-1,4.514942169E-1,7.874865904E-1
8.387621470E0,-3.331575990E-1,-4.583725333E-1,-5.062694550E-1,7.598737567E-1
8.406134960E0,-5.094519854E-1,-5.356562138E-1,-1.020416260E0,1.260046923E0
8.424696210E0,-9.150925875E-1,-6.712354422E-1,-9.070844650E-1,1.452843312E0
8.443305533E0,-1.116067886E0,-8.775194883E-1,-5.938158035E-1,1.538916888E0
8.461866470E0,-1.029973149E0,-9.671483636E-1,-4.669847488E-1,1.488050873E0
8.480427824E0,-7.118262053E-1,-9.348061681E-1,-5.144519806E-1,1.282661280E0
8.498941314E0,-4.683321118E-1,-9.382883310E-1,-5.226364136E-1,1.171694832E0
8.517502564E0,-3.791342974E-1,-9.267112017E-1,-3.389406204E-1,1.057079567E0
8.536111626E0,-4.454611838E-1,-7.160718441E-1,-1.440229416E-1,8.555332605E-1
8.554672876E0,-3.670631945E-1,-6.231439114E-1,-4.296188354E-1,8.411991838E-1
8.573234126E0,-4.515255094E-1,-4.724522829E-1,-1.084875107E0,1.266507182E0
8.591747668E0,-6.210216880E-1,-3.126044869E-1,-1.507711411E0,1.660296118E0
8.610308918E0,-6.742953062E-1,-2.136131525E-1,-1.360086441E0,1.533016590E0
8.628919074E0,-6.533026099E-1,-2.108420134E-1,-8.973035812E-1,1.129784215E0
8.647479230E0,-6.443471313E-1,-1.662782431E-1,-3.018369675E-1,7.307100893E-1
8.665992720E0,-5.418318510E-1,-5.597215891E-2,6.451225281E-2,5.485220762E-1
8.684554022E0,-4.068229198E-1,2.379393578E-2,1.226434708E-1,4.255730964E-1
8.703163241E0,-3.306717575E-1,1.635727882E-1,3.750038147E-2,3.708182127E-1
8.721694491E0,-3.638649881E-1,2.948645353E-1,7.983398438E-2,4.750960838E-1
8.740255793E0,-4.103777707E-1,3.780581951E-1,2.885055542E-1,6.281507529E-1
8.758799074E0,-4.085766077E-1,4.466701746E-1,4.820480347E-1,7.738342180E-1
8.777360376E0,-2.331286669E-1,4.905312061E-1,6.335763931E-1,8.344991824E-1
8.795969595E0,-1.247625947E-1,4.893825054E-1,8.929433823E-1,1.025869790E0
8.814530689E0,-1.691757143E-1,3.610119820E-1,1.023994446E0,1.098869737E0
8.833091887E0,-3.265010417E-1,2.504249811E-1,9.272384644E-1,1.014439141E0
8.851605428E0,-4.522403479E-1,2.365142107E-1,7.956857681E-1,9.452915665E-1
8.870166730E0,-5.224058032E-1,2.307419777E-1,7.254962921E-1,9.233063161E-1
8.888775741E0,-6.897206306E-1,3.558715582E-1,6.455736160E-1,1.009516918E0
8.907336939E0,-7.431483865E-1,4.147561789E-1,6.893777847E-1,1.095232369E0
8.926232668E0,-4.641769826E-1,2.819792032E-1,1.094349861E0,1.221709524E0
8.945164960E0,-3.200184703E-1,1.657643318E-1,1.237130165E0,1.288557597E0
8.964115637E0,-4.539552331E-1,1.784074306E-2,9.761447906E-1,1.076685794E0
8.983047980E0,-4.543476999E-1,-1.041668653E-1,6.308965683E-1,7.844189239E-1
9.001980428E0,-1.194436848E-1,-8.200562000E-2,8.156776428E-1,8.284453709E-1
9.020894439E0,2.430274487E-1,9.575605392E-3,1.089165688E0,1.115991007E0
9.039826730E0,3.877602220E-1,-1.368749142E-2,6.110229492E-1,7.238054860E-1
9.058791053E0,2.833940387E-1,2.131342888E-3,-8.862686157E-2,2.969367683E-1
9.077724595E0,3.034415841E-1,-4.414868355E-2,-4.366073608E-1,5.335277769E-1
9.096656887E0,4.760766029E-1,-1.882588863E-1,-6.451835632E-1,8.236213756E-1
9.115539387E0,6.444908381E-1,-1.937899590E-1,-1.100005150E0,1.289548106E0
9.134475116E0,6.338961124E-1,-2.282248735E-1,-1.471055031E0,1.617996841E0
9.153273814E0,4.891645312E-1,-2.953085899E-1,-1.490133286E0,1.595928041E0
9.171835116E0,5.576194525E-1,-3.201281428E-1,-1.115519524E0,1.287557878E0
9.190348605E0,6.679208279E-1,-3.770377040E-1,-8.155307770E-1,1.119538347E0
9.208909908E0,4.831758440E-1,-3.043683767E-1,-6.565666199E-1,8.701601756E-1
9.227520012E0,1.415639520E-1,-1.464564800E-1,-5.780763626E-1,6.129128274E-1
9.246080168E0,3.651850298E-2,-9.401708841E-2,-4.859962463E-1,4.963518565E-1
9.264641418E0,-4.756113142E-2,5.807363987E-2,-5.321483612E-1,5.374164932E-1
9.283154960E0,9.228100628E-2,1.889413595E-1,-6.083812714E-1,6.436943318E-1
9.301716210E0,2.861930132E-1,2.656974196E-1,-8.030910492E-1,8.930043633E-1
9.320326314E0,4.383992255E-1,4.064459801E-1,-7.841634750E-1,9.860550548E-1
9.338886522E0,5.547994971E-1,4.972453117E-1,-7.223625183E-1,1.037720092E0
9.357447824E0,6.540809274E-1,4.247770309E-1,-7.912292480E-1,1.110991048E0
9.375961314E0,6.452019811E-1,4.207295775E-1,-7.719631195E-1,1.090516406E0
9.394526991E0,6.403453350E-1,4.323676825E-1,-6.106109619E-1,9.847993236E-1
9.413131835E0,7.710351348E-1,5.170166492E-1,-4.628820419E-1,1.037333688E0
9.431694283E0,9.730047584E-1,6.675940156E-1,-3.007373810E-1,1.217728624E0
9.450206366E0,1.064699411E0,7.625845075E-1,-1.141815186E-1,1.314594001E0
9.468767668E0,7.809120417E-1,7.802735567E-1,2.241506577E-1,1.126451933E0
9.487376678E0,5.148369670E-1,7.696818113E-1,6.002054214E-1,1.103500676E0
9.505908137E0,6.018394232E-1,7.123621702E-1,6.264753342E-1,1.123450888E0
9.524469439E0,7.421585917E-1,7.226064205E-1,4.586133957E-1,1.132821990E0
9.543012720E0,9.079695940E-1,6.636520028E-1,6.285467148E-1,1.288376396E0
9.561574022E0,1.059588909E0,5.243284106E-1,1.068947792E0,1.593831334E0
9.580183033E0,1.082138419E0,3.388776779E-1,1.306798935E0,1.730197993E0
9.598744283E0,7.857661247E-1,3.246408701E-1,1.066223145E0,1.363690541E0
9.617305585E0,5.164281130E-1,3.345719576E-1,9.997081757E-1,1.173904948E0
9.635819074E0,7.177632451E-1,2.183922529E-1,9.524841309E-1,1.212478978E0
9.654383553E0,8.593749404E-1,-3.479766846E-2,8.950824738E-1,1.241333477E0
9.672990480E0,4.798299074E-1,-1.409049034E-1,8.020372391E-1,9.451744097E-1
9.691551730E0,8.425757289E-3,-3.865252137E-1,8.758020401E-1,9.573410822E-1
9.710064178E0,-3.389186561E-1,-6.159563065E-1,1.110560417E0,1.314386727E0
9.728625428E0,-5.320229530E-1,-7.095526457E-1,1.006442070E0,1.341431705E0
9.747234491E0,-3.430791795E-1,-6.155108213E-1,3.656311035E-1,7.938784532E-1
9.765747980E0,1.192230880E-1,-5.246130824E-1,-4.476718903E-1,6.998879569E-1
9.784309230E0,3.261321485E-1,-5.256762505E-1,-9.964189529E-1,1.172837767E0
9.802870533E0,7.155127823E-3,-5.682820082E-1,-1.341429710E0,1.456855966E0
9.821431783E0,-2.217974812E-1,-6.701772213E-1,-1.315320969E0,1.492782932E0
9.840041991E0,-2.326267660E-1,-8.101189733E-1,-9.846935272E-1,1.296159445E0
9.858602303E0,-1.344054341E-1,-8.301978111E-1,-5.726747513E-1,1.017472160E0
9.877163397E0,-2.412050962E-3,-7.982106805E-1,-3.262205124E-1,8.623026911E-1
9.895676887E0,-4.738553613E-2,-7.029406428E-1,-4.194221497E-1,8.199304092E-1
9.914328658E0,-1.707257628E-1,-5.105047822E-1,-7.415285110E-1,9.163116017E-1
9.932847147E0,-1.690510511E-1,-3.096041679E-1,-1.122336388E0,1.176465880E0
9.951408397E0,-2.040728331E-1,-1.258223653E-1,-1.421857834E0,1.441928115E0
9.969921939E0,-1.503271759E-1,-2.880662680E-2,-1.304867744E0,1.313814261E0
9.988483241E0,-1.173372865E-1,4.506534338E-2,-6.755762100E-1,6.871696585E-1
1.000709335E1,-1.234365925E-1,2.531480789E-2,-1.737146378E-1,2.146024400E-1
1.002562371E1,-1.952780336E-1,-2.173846960E-2,2.905082703E-2,1.986202961E-1
1.004418496E1,-1.368283331E-1,1.032539010E-1,-8.501911163E-2,1.913416059E-1
1.006272829E1,4.266411066E-2,1.939902902E-1,-3.314208984E-1,3.863835801E-1
1.008128954E1,5.615714192E-2,2.377518415E-1,-4.668703079E-1,5.269226197E-1
1.009989860E1,-1.926652491E-1,2.852113843E-1,-3.294792175E-1,4.764682431E-1
1.011845986E1,-4.345536232E-1,3.039867282E-1,-7.595157623E-2,5.357363384E-1
1.013702110E1,-5.491987467E-1,3.370536566E-1,1.435394287E-1,6.601727034E-1
1.015553465E1,-6.561125517E-1,3.962146640E-1,2.922191620E-1,8.202815243E-1
1.017409887E1,-6.193298101E-1,3.784781694E-1,3.140354156E-1,7.908434616E-1
1.019270496E1,-7.706406116E-1,4.865856767E-1,3.393764496E-1,9.725373759E-1
1.021126621E1,-7.086865902E-1,6.099668145E-1,5.058965683E-1,1.063121600E0
1.022977970E1,-5.188649893E-1,6.853882074E-1,6.052427292E-1,1.051330887E0
1.024834100E1,-3.385699093E-1,7.081246972E-1,6.207094193E-1,1.000674949E0
1.026694996E1,-2.863040566E-1,7.427284122E-1,7.023696899E-1,1.061573685E0
1.028551126E1,-3.624843061E-1,6.937971711E-1,9.697122574E-1,1.246230817E0
1.030407256E1,-4.500517845E-1,7.235270739E-1,1.201494217E0,1.472965169E0
1.032258605E1,-3.510515690E-1,7.486547828E-1,1.118034363E0,1.390583340E0
1.034114736E1,-2.780188620E-1,8.206696510E-1,9.231214523E-1,1.266075187E0
1.035972657E1,-2.418926358E-2,5.423768163E-1,7.747335434E-1,9.460284322E-1
1.037828788E1,2.155456543E-1,3.289233446E-1,8.384532928E-1,9.260963341E-1
1.039684913E1,2.034125924E-1,1.146065593E-1,9.690036774E-1,9.967344044E-1
1.041539241E1,6.548213959E-2,-2.498923540E-1,6.672449112E-1,7.155067230E-1
1.043395684E1,-1.831673831E-1,-5.701825023E-2,1.099993706E0,1.116596401E0
1.045256267E1,-1.404038221E-1,-1.420776546E-1,1.297500610E0,1.312786017E0
1.047112512E1,-2.615151107E-1,-2.651914358E-1,6.710777283E-1,7.675037252E-1
1.048963751E1,-3.919005096E-1,-1.126364172E-1,-1.822690964E-1,4.466486263E-1
1.050819876E1,-3.243499994E-1,-7.210874557E-2,-8.375663757E-1,9.010660503E-1
1.052680881E1,-8.814671636E-2,-1.259642243E-1,-7.228612900E-1,7.390299547E-1
1.054536902E1,3.317588270E-1,-2.061934769E-1,-6.804552078E-1,7.846011465E-1
1.056393147E1,7.018681765E-1,-1.827075779E-1,-6.353721619E-1,9.642088883E-1
1.058244387E1,9.916999340E-1,-1.303495765E-1,-5.225009918E-1,1.128479977E0
1.060100512E1,1.192061305E0,-1.132309437E-1,-4.036464691E-1,1.263630434E0
1.061961407E1,1.220994353E0,-1.188477278E-1,-2.556400299E-1,1.253117639E0
1.063817538E1,9.110118151E-1,4.965448380E-2,-1.189584732E-1,9.200865249E-1
1.065673777E1,5.292693377E-1,1.786729693E-1,-2.132816315E-1,5.979457468E-1
1.067525017E1,2.672552168E-1,1.987824440E-1,-6.102981567E-1,6.952723575E-1
1.069381454E1,2.074277401E-1,2.691906691E-1,-9.953374863E-1,1.051754056E0
1.071239074E1,4.109857082E-1,3.047569990E-1,-1.340025902E0,1.434383316E0
1.073095194E1,4.815134406E-1,3.602243662E-1,-1.474210739E0,1.592141354E0
1.074949527E1,4.697009325E-1,3.771012425E-1,-1.320252419E0,1.451168757E0
1.076805652E1,3.749774992E-1,4.166390300E-1,-9.794025421E-1,1.128461584E0
1.078661782E1,4.346033633E-1,4.151026607E-1,-6.869726181E-1,9.127549947E-1
1.080517907E1,3.570634723E-1,3.636719584E-1,-4.841136932E-1,7.029350500E-1
1.082378808E1,3.283726871E-1,3.441336155E-1,-2.716264725E-1,5.477567959E-1
1.084230163E1,2.711299360E-1,4.188687801E-1,2.173519135E-2,4.994345960E-1
1.086086288E1,1.420799494E-1,5.157927275E-1,4.006471634E-1,6.683913519E-1
1.087947298E1,1.547549367E-1,5.179514885E-1,5.256757736E-1,7.540277540E-1
1.089803434E1,2.713055909E-2,5.891874433E-1,4.046878815E-1,7.152972752E-1
1.091659444E1,8.356012404E-2,6.353273392E-1,3.995542526E-1,7.551600645E-1
1.093510798E1,2.562781274E-1,6.300743222E-1,4.683904648E-1,8.258703031E-1
1.095367251E1,3.901607990E-1,5.663457513E-1,5.307636261E-1,8.687249196E-1
1.097227824E1,6.052082777E-1,4.205725193E-1,7.239675522E-1,1.033095988E0
1.099084058E1,7.013447881E-1,2.941794991E-1,1.074570656E0,1.316483264E0
1.100935303E1,7.077738047E-1,2.023849487E-1,1.082767487E0,1.309308541E0
1.102791428E1,4.526046216E-1,2.073602676E-1,7.078275681E-1,8.653722264E-1
1.104652449E1,3.550790250E-1,1.622110009E-1,6.072254181E-1,7.218838073E-1
1.106505480E1,6.005023718E-1,-1.392652988E-1,6.930646896E-1,9.275433068E-1
1.108361605E1,6.307188869E-1,-4.120222330E-1,1.129254341E0,1.357491805E0
1.110215939E1,5.465803146E-1,-5.763223171E-1,1.624395370E0,1.808191852E0
1.112072064E1,5.175870657E-1,-9.000101089E-1,1.790757179E0,2.069957932E0
1.113932965E1,1.943537593E-1,-1.027437449E0,1.395591736E0,1.743868512E0
1.115789090E1,-1.092386246E-1,-1.025858283E0,8.465156555E-1,1.334506294E0
1.117645220E1,-2.696209550E-1,-9.290059209E-1,3.940267563E-1,1.044511630E0
1.119496574E1,-3.217547238E-1,-8.592411280E-1,-1.471862793E-1,9.292390538E-1
1.121353006E1,-2.905181050E-1,-6.811837554E-1,-5.740528107E-1,9.369891714E-1
1.123213600E1,-2.379954457E-1,-5.877162218E-1,-9.296579361E-1,1.125307099E0
1.125069840E1,-2.597314119E-1,-6.817649007E-1,-1.130436897E0,1.345418658E0
1.126921079E1,-4.029685855E-1,-7.492117882E-1,-9.202690125E-1,1.253234631E0
1.128777210E1,-4.804016054E-1,-8.055794239E-1,-5.037927628E-1,1.064683549E0
1.130638110E1,-6.726104617E-1,-7.784651518E-1,-4.144611359E-1,1.109139693E0
1.132494350E1,-8.206396699E-1,-6.898743510E-1,-6.690969467E-1,1.263751088E0
1.134350360E1,-8.665533066E-1,-5.848851204E-1,-8.475704193E-1,1.345875497E0
1.136201715E1,-9.232566357E-1,-5.940117240E-1,-8.062314987E-1,1.362080017E0
1.138057840E1,-1.089684963E0,-5.611445308E-1,-6.685304642E-1,1.396148089E0
1.139915767E1,-1.203181744E0,-5.708773136E-1,-4.843864441E-1,1.417101776E0
1.141771892E1,-1.308818102E0,-5.113215446E-1,-4.648971558E-1,1.480062131E0
1.143628017E1,-1.150836468E0,-4.338037372E-1,-4.853401184E-1,1.322182018E0
1.145482350E1,-8.161054254E-1,-4.041626453E-1,-4.848566055E-1,1.031727404E0
1.147347543E1,-7.713276148E-1,-2.895787358E-1,-3.385543823E-1,8.907419398E-1
1.149199496E1,-6.559535265E-1,-2.193625569E-1,-2.021417618E-1,7.205943742E-1
1.151055506E1,-5.793278813E-1,-1.647815108E-1,-1.809444427E-1,6.288995403E-1
1.152906855E1,-5.557366014E-1,-1.195648909E-1,-1.576099396E-1,5.898981491E-1
1.154762986E1,-6.714237928E-1,1.723396778E-2,3.727912903E-2,6.726787143E-1
1.156623887E1,-6.398732066E-1,4.593503475E-2,1.196746826E-1,6.525869885E-1
1.158480017E1,-5.972270966E-1,7.899665833E-2,-1.228237152E-2,6.025541748E-1
1.160336142E1,-5.769686699E-1,2.555313110E-1,-1.420345306E-1,6.468097903E-1
1.162187491E1,-5.219194889E-1,3.863140345E-1,-1.468105316E-1,6.657265342E-1
1.164043616E1,-5.598820448E-1,4.329137802E-1,5.764579773E-2,7.100741392E-1
1.165904637E1,-6.980704665E-1,4.484503269E-1,4.603557587E-1,9.488611576E-1
1.167760756E1,-8.464757204E-1,3.846911192E-1,7.506952286E-1,1.195011183E0
1.169616772E1,-8.728699684E-1,3.437498808E-1,8.774957657E-1,1.284548474E0
1.171468126E1,-7.813490629E-1,3.173952103E-1,8.765850067E-1,1.216407560E0
1.173327282E1,-7.276477814E-1,3.887343407E-1,7.591648102E-1,1.121123049E0
1.175182178E1,-5.677628517E-1,4.354832172E-1,6.213903427E-1,9.476952286E-1
1.177036506E1,-4.795873761E-1,5.836461782E-1,3.586988449E-1,8.362486317E-1
1.178892631E1,-4.294795990E-1,5.737718344E-1,5.490303040E-2,7.188053886E-1
1.180748762E1,-1.997373104E-1,4.211504459E-1,-3.398704529E-2,4.673519129E-1
1.182609663E1,3.921300173E-2,2.664852142E-2,-1.612586975E-1,1.680838205E-1
1.184465788E1,2.179746628E-1,-2.832260728E-1,-9.296417236E-2,3.692862024E-1
1.186321913E1,2.025917172E-1,-3.664791584E-1,4.254808426E-1,5.969793337E-1
1.188173267E1,6.892085075E-4,-4.997184873E-1,1.096776009E0,1.205253772E0
1.190029392E1,-2.805994153E-1,-4.905683994E-1,1.250491142E0,1.372268736E0
1.191890293E1,-6.998724341E-1,-3.270692229E-1,7.909011841E-1,1.105585991E0
1.193746423E1,-9.267398715E-1,-1.978917718E-1,3.437042236E-3,9.476390431E-1
1.195602553E1,-8.844403625E-1,-1.384091377E-1,-7.694234848E-1,1.180425492E0
1.197453902E1,-6.919264197E-1,-1.461223364E-1,-1.336798668E0,1.512330845E0
1.199310329E1,-5.363470316E-1,-1.438152790E-1,-1.360897064E0,1.469827130E0
1.201167954E1,-1.980975866E-1,-2.481070161E-1,-8.055143356E-1,8.658250921E-1
1.203024079E1,-2.178514004E-2,-4.330945611E-1,-7.662296295E-2,4.403595913E-1
1.204878407E1,-1.189354658E-1,-5.681439638E-1,4.046554565E-1,7.075869184E-1
1.206734532E1,-2.970014811E-1,-6.415385008E-1,7.749576569E-1,1.048971352E0
1.208595543E1,-4.560124874E-1,-7.285683751E-1,9.282026291E-1,1.265037306E0
1.210451559E1,-7.518916726E-1,-7.026214600E-1,7.295398712E-1,1.261446165E0
1.212307798E1,-1.240863442E0,-6.460570097E-1,4.372367859E-1,1.465710664E0
1.214159043E1,-1.522511601E0,-6.757847071E-1,2.954978943E-1,1.691758125E0
1.216015168E1,-1.440207362E0,-7.037267089E-1,2.586135864E-1,1.623671615E0
1.217876069E1,-9.492969513E-1,-5.898113847E-1,1.725044250E-1,1.130840372E0
1.219732308E1,-4.924520850E-1,-5.202397108E-1,-1.255464554E-1,7.272690872E-1
1.221588324E1,-2.551158667E-1,-5.426934361E-1,-3.669166565E-1,7.030135873E-1
1.223439678E1,-2.602724135E-1,-5.638175607E-1,-3.236799240E-1,7.002861302E-1
1.225295803E1,-3.099422455E-1,-6.716881990E-1,4.512119293E-2,7.411242503E-1
1.227156704E1,-3.297319412E-1,-7.482743859E-1,1.909360886E-1,8.396989339E-1
1.229012829E1,-4.460792542E-1,-8.259199858E-1,-5.280017853E-2,9.401693373E-1
1.230864184E1,-4.325296879E-1,-8.384127021E-1,-2.028961182E-1,9.649790799E-1
1.232720308E1,-1.107481718E-1,-8.218047619E-1,-1.363973618E-1,8.403763826E-1
1.234581345E1,-2.047440410E-2,-6.995654702E-1,-1.991481781E-1,7.276476106E-1
1.236434360E1,4.574102163E-2,-6.723823547E-1,-3.319187164E-1,7.512391805E-1
1.238290486E1,7.497194409E-2,-6.535851359E-1,-2.284898758E-1,6.964208108E-1
1.240144819E1,9.489783645E-2,-6.014547944E-1,-7.355022430E-2,6.133213714E-1
1.242000944E1,2.361435592E-1,-6.316993833E-1,-1.975030899E-1,7.027199740E-1
1.243861850E1,2.556977570E-1,-5.786892176E-1,-3.137264252E-1,7.061776146E-1
1.245717975E1,2.259294987E-1,-5.553227663E-1,-9.277439117E-2,6.066585537E-1
1.247574100E1,2.121210694E-1,-6.362164617E-1,1.445388794E-2,6.708022429E-1
1.249425449E1,7.998254895E-2,-6.732129455E-1,8.077907562E-2,6.827430975E-1
1.251290038E1,-2.717077732E-3,-7.205833197E-1,6.657886505E-2,7.236576873E-1
1.253142480E1,-2.059718966E-2,-7.033719420E-1,4.246234894E-2,7.049534624E-1
1.254998605E1,7.959792018E-2,-7.519019842E-1,8.394527435E-2,7.607491254E-1
1.256849960E1,2.284789383E-1,-8.035840988E-1,1.036319733E-1,8.418370478E-1
1.258706085E1,3.030765653E-1,-7.700414658E-1,3.632678986E-1,9.037603828E-1
1.260566980E1,4.065600634E-1,-8.043725491E-1,5.219917297E-1,1.041528516E0
1.262420058E1,2.242324352E-1,-9.083204269E-1,5.307712555E-1,1.075659941E0
1.264279236E1,1.244343519E-1,-1.073411703E0,4.312705994E-1,1.163482240E0
1.266130590E1,-9.802870452E-2,-1.032935143E0,2.782211304E-1,1.074230717E0
1.267986720E1,-1.675347537E-1,-1.112534046E0,1.495685577E-1,1.134976057E0
1.269844642E1,-3.974187970E-1,-1.273914337E0,-1.039199829E-1,1.338506183E0
1.271700767E1,-9.409492016E-1,-1.280763507E0,-2.591304779E-1,1.610245064E0
1.273556897E1,-1.133992672E0,-1.287362933E0,-2.280101776E-1,1.730673667E0
1.275411225E1,-9.501776099E-1,-1.331109881E0,5.580806732E-2,1.636400179E0
1.277276527E1,-7.707246542E-1,-1.134574652E0,2.977113724E-1,1.403534180E0
1.279128371E1,-4.565937221E-1,-1.011670709E0,3.044919968E-1,1.150943450E0
1.280984376E1,-2.214039564E-1,-1.065695524E0,1.970014572E-1,1.106135722E0
1.282835730E1,-5.501728654E-1,-1.091677666E0,2.444448471E-1,1.246677019E0
1.284691860E1,-7.947913408E-1,-1.190001011E0,3.583021164E-1,1.475186798E0
1.286552788E1,-8.819956779E-1,-1.353216887E0,1.849174500E-1,1.625824954E0
1.288408887E1,-8.350194097E-1,-1.439445257E0,-1.588554382E-1,1.671674344E0
1.290265131E1,-6.273072958E-1,-1.349068880E0,-4.633235931E-1,1.558258656E0
1.292116366E1,-4.029353857E-1,-1.191321135E0,-4.906673431E-1,1.349947189E0
1.293972491E1,-3.446090817E-1,-1.200488091E0,-2.471923828E-1,1.273197215E0
1.295833397E1,-4.408051372E-1,-1.282208323E0,2.056779861E-1,1.371375509E0
1.297689522E1,-5.535489917E-1,-1.312207937E0,6.648550034E-1,1.571730999E0
1.299545652E1,-5.754139423E-1,-1.338624239E0,7.795743942E-1,1.652498803E0
1.301397001E1,-5.562664866E-1,-1.383891582E0,5.610103607E-1,1.593524691E0
1.303253126E1,-4.321566224E-1,-1.402330399E0,3.798589706E-1,1.515777929E0
1.305114053E1,-1.659897566E-1,-1.275505185E0,4.004020691E-1,1.347140636E0
1.306967178E1,-4.503089190E-2,-1.187067509E0,2.336225510E-1,1.210676071E0
1.308821506E1,-2.754766047E-1,-1.225594163E0,6.449031830E-2,1.257826464E0
1.310677631E1,-6.298783422E-1,-1.210199594E0,1.559801102E-1,1.373193205E0
1.312538558E1,-7.397718430E-1,-1.248255372E0,1.880769730E-1,1.463139365E0
1.314394663E1,-6.223708391E-1,-1.229526281E0,1.075401306E-1,1.382260908E0
1.316250902E1,-4.259016812E-1,-1.155256867E0,5.454730988E-2,1.232471533E0
1.318102137E1,-3.596855998E-1,-1.098450780E0,1.940803528E-1,1.172021770E0
1.319958267E1,-3.519751132E-1,-9.982889891E-1,2.880477905E-1,1.097013635E0
1.321819194E1,-3.326070905E-1,-9.699209332E-1,2.172098160E-1,1.048119362E0
1.323675319E1,-2.828841805E-1,-9.484249353E-1,2.073564529E-1,1.011202263E0
1.325531423E1,-2.969451249E-1,-8.855606318E-1,2.558822632E-1,9.684367673E-1
1.327382772E1,-2.858183980E-1,-8.217214942E-1,1.685523987E-1,8.861874981E-1
1.329238897E1,-2.879377007E-1,-8.293893933E-1,-4.230213165E-2,8.789677785E-1
1.331095335E1,-3.181410432E-1,-7.582152486E-1,-1.476621628E-1,8.354090021E-1
1.332955928E1,-3.075293303E-1,-6.916904449E-1,-6.934547424E-2,7.601439044E-1
1.334807277E1,-3.376076818E-1,-7.064153552E-1,-1.997184753E-2,7.831988736E-1
1.336663402E1,-4.182575643E-1,-6.952568293E-1,8.836364746E-2,8.161676194E-1
1.338521324E1,-3.780808151E-1,-6.449650526E-1,1.689910889E-1,7.664744027E-1
1.340393928E1,-1.299401969E-1,-5.267719030E-1,1.920318604E-2,5.429013308E-1
1.342292069E1,2.730745077E-2,-3.610283136E-1,-3.784418106E-1,5.237416769E-1
1.344180407E1,8.144967258E-2,-2.214655876E-1,-6.758565903E-1,7.158653409E-1
1.346073637E1,1.781793088E-1,-5.744791031E-2,-8.112134933E-1,8.325355610E-1
1.347968710E1,4.557482898E-1,-1.368460059E-1,-4.538669586E-1,6.575929966E-1
1.349861944E1,6.422078609E-1,-2.884558439E-1,1.254339218E-1,7.151023558E-1
1.351750220E1,4.696124494E-1,-1.937811971E-1,5.502080917E-1,7.488764579E-1
1.353643449E1,2.434789538E-1,-1.303858757E-1,4.985399246E-1,5.699337979E-1
1.355536480E1,2.112708241E-2,-2.140635252E-2,3.729829788E-1,3.741936504E-1
1.357421314E1,-1.168500632E-2,6.138688326E-2,6.539993286E-1,6.569779377E-1
1.359314553E1,1.427635849E-1,1.649045944E-1,7.417249680E-1,7.731305805E-1
1.361202913E1,3.548598886E-1,1.351997852E-1,2.263431549E-1,4.420811534E-1
1.363096147E1,3.288699389E-1,2.380459905E-1,-2.168550491E-1,4.602688808E-1
1.364974110E1,4.758338928E-1,2.255398035E-1,-1.341228485E-1,5.433921558E-1
1.366830345E1,5.796390772E-1,1.868674159E-1,1.055774689E-1,6.180999052E-1
1.368686361E1,6.339960694E-1,1.863663197E-1,3.541288376E-1,7.497270535E-1
1.370537715E1,6.412830353E-1,1.145613194E-1,4.918889999E-1,8.162861113E-1
1.372393840E1,4.915422797E-1,5.779927969E-2,4.779634476E-1,6.880433320E-1
1.374254741E1,2.893378437E-1,-2.167069912E-2,2.507009506E-1,3.834540046E-1
1.376106095E1,7.903029025E-2,-2.055299282E-2,6.097698212E-2,1.019137117E-1
1.377962220E1,8.051693439E-3,9.087443352E-3,1.183452606E-1,1.189664327E-1
1.379818345E1,7.635425031E-2,-2.214491367E-2,1.428003311E-1,1.634389896E-1
1.381676272E1,1.037935913E-1,-8.479118347E-3,-2.218341827E-2,1.064758615E-1
1.383532397E1,1.695637107E-1,3.231054544E-2,-1.900119781E-1,2.567106838E-1
1.385388522E1,3.270504773E-1,9.919202328E-2,-3.254680634E-1,4.719433572E-1
1.387242850E1,4.259635806E-1,1.855132580E-1,-5.081472397E-1,6.885301432E-1
1.389098980E1,5.201035738E-1,1.724564433E-1,-6.633262634E-1,8.603782215E-1
1.390955105E1,5.142583251E-1,1.741148233E-1,-5.666379929E-1,7.847650678E-1
1.392811230E1,5.527511835E-1,1.941426396E-1,-4.061508179E-1,7.128700599E-1
1.394672137E1,5.782312155E-1,2.118863463E-1,-3.217821121E-1,6.948315551E-1
1.396523486E1,5.718513727E-1,1.776837707E-1,-3.388242722E-1,6.880315416E-1
1.398379611E1,5.799790621E-1,1.275734305E-1,-2.932748795E-1,6.623147647E-1
1.400240512E1,4.871295094E-1,1.401823759E-1,-2.471065521E-1,5.639218967E-1
1.402096642E1,5.228664279E-1,1.541588306E-1,-1.709766388E-1,5.713031223E-1
1.403947991E1,5.936845541E-1,2.036405802E-1,-1.376571655E-1,6.425576479E-1
1.405804116E1,5.809915066E-1,2.990306616E-1,-5.711841583E-2,6.559214745E-1
1.407665126E1,5.699276924E-1,3.528717756E-1,-5.541896820E-2,6.726123153E-1
1.409521142E1,5.432132483E-1,3.129406571E-1,-2.712078094E-1,6.830564866E-1
1.411377272E1,5.956405401E-1,3.681324124E-1,-2.552919388E-1,7.453073863E-1
1.413228621E1,6.692525148E-1,4.061856270E-1,-5.980587006E-2,7.851512175E-1
1.415084751E1,7.161172628E-1,3.878791928E-1,1.114788055E-1,8.220107824E-1
1.416942668E1,7.084666491E-1,3.061981201E-1,2.173423767E-1,8.018229170E-1
1.418797282E1,6.421124935E-1,2.786585093E-1,2.729063034E-1,7.512901367E-1
1.420654923E1,5.273036957E-1,2.191319466E-1,2.337665558E-1,6.170209073E-1
1.422509256E1,5.566238761E-1,2.260681391E-1,2.860231400E-1,6.653917489E-1
1.424365381E1,7.424932718E-1,2.173098326E-1,4.321918488E-1,8.861769666E-1
1.426226282E1,8.024947643E-1,1.529598236E-1,7.035732269E-1,1.078151121E0
1.428082407E1,8.023508191E-1,8.192539215E-3,7.271623611E-1,1.082866129E0
1.429933762E1,7.299057841E-1,4.443764687E-3,6.572437286E-1,9.822176539E-1
1.431789887E1,7.674171925E-1,-5.525159836E-2,5.303974152E-1,9.345069847E-1
1.433650923E1,8.085408211E-1,-8.665800095E-2,5.269412994E-1,9.689762647E-1
1.435506913E1,8.946698308E-1,-2.358700037E-1,7.011384964E-1,1.160889295E0
1.437363038E1,9.534361362E-1,-3.927046061E-1,8.394584656E-1,1.329642015E0
1.439214392E1,8.820175529E-1,-4.973902702E-1,8.176021576E-1,1.301470450E0
1.441070517E1,7.468570471E-1,-6.821000576E-1,5.976638794E-1,1.174843841E0
1.442931418E1,4.842891395E-1,-8.396819234E-1,4.324970245E-1,1.061440238E0
1.444787657E1,2.323035598E-1,-9.323539138E-1,4.597434998E-1,1.065182074E0
1.446643673E1,3.043714166E-2,-8.431051373E-1,4.082212448E-1,9.372285084E-1
1.448495022E1,1.864627600E-1,-8.415688872E-1,2.383708954E-2,8.623078103E-1
1.450351152E1,2.300206125E-1,-7.807691693E-1,-7.140216827E-1,1.082745095E0
1.452209074E1,6.531295180E-2,-7.962540984E-1,-1.405694962E0,1.616868794E0
1.454065204E1,-8.337402344E-2,-7.934608459E-1,-1.715064526E0,1.891554300E0
1.455919527E1,-1.809701771E-1,-7.795698047E-1,-1.523694038E0,1.721081871E0
1.457775657E1,-9.039658308E-2,-8.403912783E-1,-9.375362396E-1,1.262300774E0
1.459636559E1,1.668772101E-1,-9.263868332E-1,-3.964529037E-1,1.021379201E0
1.461492684E1,2.743995190E-1,-9.410943985E-1,-1.386594772E-1,9.900405111E-1
1.463348923E1,1.582586169E-1,-9.359611273E-1,-7.987499237E-2,9.526011946E-1
1.465200163E1,-1.164469719E-1,-8.881796002E-1,-4.091930389E-2,8.967147199E-1
1.467056288E1,-5.018981099E-1,-7.345317602E-1,-4.605770111E-2,8.908198086E-1
1.468917189E1,-7.017276883E-1,-6.310616732E-1,-1.532936096E-1,9.561168938E-1
1.470773314E1,-7.635861635E-1,-4.679827690E-1,-2.504663467E-1,9.299489728E-1
1.472629439E1,-6.863456368E-1,-3.019827604E-1,-3.057537079E-1,8.097834591E-1
1.474480793E1,-5.780926943E-1,-2.303959131E-1,-3.650703430E-1,7.214913688E-1
1.476336918E1,-4.668033719E-1,-1.254163980E-1,-4.575414658E-1,6.655665660E-1
1.478197934E1,-5.094724894E-1,-8.902680874E-2,-3.659429550E-1,6.335631274E-1
1.480053944E1,-5.039989948E-1,-1.082109213E-1,-1.345710754E-1,5.327607011E-1
1.481905298E1,-5.115858316E-1,-3.322637081E-2,8.331298828E-2,5.193891690E-1
1.483761423E1,-4.001758695E-1,4.485106468E-2,1.457519531E-1,4.282475643E-1
1.485622324E1,-2.410186827E-1,8.220922947E-2,3.936862946E-2,2.576785824E-1
1.487475475E1,-2.202434242E-1,1.214860678E-1,2.399253845E-2,2.526690968E-1
1.489331600E1,-4.143130481E-1,8.871102333E-2,1.532726288E-1,4.505745735E-1
1.491185928E1,-6.717416048E-1,1.279008389E-1,2.283163071E-1,7.209186808E-1
1.493042053E1,-6.542607546E-1,1.685519218E-1,6.829261780E-2,6.790660991E-1
1.494902960E1,-6.108021140E-1,3.322221041E-1,-5.193328857E-2,6.972430103E-1
1.496759084E1,-4.541355371E-1,4.015630484E-1,-2.832031250E-2,6.068723161E-1
1.498615210E1,-3.378888965E-1,3.486717939E-1,1.507310867E-1,5.083903881E-1
1.500466559E1,-3.879508376E-1,2.401720285E-1,3.638944626E-1,5.836160001E-1
1.502322689E1,-5.442950726E-1,1.417654753E-1,4.775075912E-1,7.378130357E-1
1.504183694E1,-6.746941209E-1,8.768618107E-2,6.170215607E-1,9.184860529E-1
1.506039715E1,-6.620790362E-1,9.863126278E-2,5.921945572E-1,8.937399900E-1
1.507891064E1,-6.695774794E-1,2.005345821E-1,4.023523331E-1,8.064958273E-1
1.509747194E1,-6.715053320E-1,3.145132065E-1,1.989364624E-1,7.677328207E-1
1.511608236E1,-6.268010139E-1,3.560991287E-1,1.626434326E-1,7.390121695E-1
1.513464220E1,-3.229202926E-1,1.743695736E-1,3.464078903E-1,5.046589839E-1
1.515320340E1,-2.102386951E-2,-1.533921957E-1,6.215105057E-1,6.405048614E-1
1.517171694E1,-2.255228460E-1,-3.177163005E-1,1.055562019E0,1.125173488E0
1.519027824E1,-4.112218618E-1,-4.510446787E-1,1.185104370E0,1.333048045E0
1.520885746E1,-5.232329369E-1,-3.817187548E-1,9.671897888E-1,1.164018042E0
1.522741871E1,-5.495699048E-1,-2.169163823E-1,8.247413635E-1,1.014533446E0
1.524597996E1,-2.898453474E-1,-2.657123208E-1,7.624406815E-1,8.578631334E-1
1.526452329E1,2.465039492E-3,-3.111183047E-1,7.083988190E-1,7.737115500E-1
1.528308454E1,2.992374003E-1,-3.576008677E-1,5.224828720E-1,7.002926202E-1
1.530169376E1,3.958048820E-1,-3.561948538E-1,2.437591553E-3,5.324868265E-1
1.532025480E1,4.582936466E-1,-1.887267828E-1,-4.102907181E-1,6.434200326E-1
1.533876834E1,6.858140230E-1,-1.222717762E-2,-6.187591553E-1,9.237712218E-1
1.535732960E1,9.896038771E-1,1.017212868E-2,-7.751588821E-1,1.257096097E0
1.537589084E1,1.008112073E0,1.448512077E-2,-8.415594101E-1,1.313286721E0
1.539450100E1,6.968541145E-1,-1.239805222E-1,-8.262605667E-1,1.087972128E0
1.541306110E1,4.365726709E-1,-3.701388836E-1,-6.145105362E-1,8.397747848E-1
1.543157465E1,3.219984174E-1,-4.979139566E-1,-3.326444626E-1,6.798923646E-1
1.545013590E1,4.750690460E-1,-5.002238154E-1,-1.772909164E-1,7.122826216E-1
1.546874600E1,5.806946158E-1,-2.596499920E-1,-1.827344894E-1,6.618279602E-1
1.548730616E1,5.685121417E-1,-5.249065161E-2,-4.170150757E-1,7.070098282E-1
1.550586746E1,3.558698893E-1,8.675557375E-2,-7.003622055E-1,7.903651856E-1
1.552438095E1,2.333355844E-1,2.103753090E-1,-8.020563126E-1,8.613928222E-1
1.554294220E1,3.470789194E-1,2.669091821E-1,-8.197479248E-1,9.293497447E-1
1.556152168E1,5.510617495E-1,2.793622017E-1,-7.625532150E-1,9.814273774E-1
1.558008267E1,5.454860926E-1,3.212966919E-1,-6.787166595E-1,9.281395075E-1
1.559862600E1,4.392578602E-1,2.774736285E-1,-6.453809738E-1,8.285262118E-1
1.561718725E1,4.096845984E-1,4.449391365E-1,-4.256849289E-1,7.396079800E-1
1.563579756E1,4.751550555E-1,5.422117710E-1,-2.724533081E-1,7.707118375E-1
1.565435756E1,5.922430754E-1,5.605936646E-1,-3.581094742E-1,8.906511734E-1
1.567291881E1,6.480192542E-1,6.634263396E-1,-4.236297607E-1,1.019571300E0
1.569143230E1,4.999397397E-1,7.122008204E-1,-3.630590439E-1,9.428582191E-1
1.570999355E1,3.008638024E-1,7.474063635E-1,-1.346139908E-1,8.168575312E-1
1.572860251E1,2.914621830E-1,8.328256011E-1,3.148651123E-2,8.829156734E-1
1.574716381E1,4.864366651E-1,7.412243485E-1,-3.960323334E-2,8.874697629E-1
1.576567730E1,4.511613250E-1,6.808528304E-1,2.056503296E-2,8.170251149E-1
1.578423860E1,3.894096017E-1,5.518974066E-1,2.256145477E-1,7.121323679E-1
1.580279986E1,3.551324308E-1,4.975202680E-1,4.560403824E-1,7.626390305E-1
1.582140887E1,4.208678007E-1,4.204059243E-1,5.580625534E-1,8.156620994E-1
1.583997121E1,5.365982056E-1,3.069583774E-1,5.176534653E-1,8.063040306E-1
1.585848361E1,5.697044134E-1,2.729476094E-1,5.438976288E-1,8.335995122E-1
1.587704491E1,5.060120821E-1,3.176955581E-1,7.061901093E-1,9.250314401E-1
1.589562439E1,5.234357715E-1,3.034363389E-1,8.884029388E-1,1.074857386E0
1.591418538E1,5.807539225E-1,3.531839848E-1,9.487495422E-1,1.167107424E0
1.593274663E1,7.595446110E-1,3.649438620E-1,1.007096291E0,1.313139359E0
1.595128991E1,8.872219324E-1,2.556781769E-1,8.346223831E-1,1.244639952E0
1.596985121E1,5.650788546E-1,1.691629887E-1,6.919860840E-1,9.092716695E-1
1.598846022E1,1.499045491E-1,2.761113644E-2,6.726255417E-1,6.896802651E-1
1.600702147E1,7.310467958E-2,-2.300408483E-1,8.113069534E-1,8.464526323E-1
1.602558272E1,1.591361463E-1,-4.155582190E-1,1.285367966E0,1.360214598E0
1.604409621E1,2.039825320E-1,-6.210480928E-1,1.593299866E0,1.722182937E0
1.606265751E1,-2.988651395E-2,-7.774497271E-1,1.432564735E0,1.630203362E0
1.608126647E1,-4.568588734E-2,-9.334440231E-1,6.947546005E-1,1.164512301E0
1.609982777E1,-2.010713518E-1,-8.567298651E-1,-2.074499130E-1,9.041300883E-1
1.611832835E1,-3.263114691E-1,-7.366698980E-1,-1.106719971E0,1.368937839E0
1.613716204E1,-5.020690560E-1,-6.036195755E-1,-1.765604496E0,1.932301520E0
1.615614308E1,-5.542126894E-1,-5.437434316E-1,-1.822640419E0,1.981117544E0
1.617504517E1,-4.655482173E-1,-6.865532398E-1,-1.223429680E0,1.478130805E0
1.619397746E1,-3.551494777E-1,-8.392404318E-1,-4.948377609E-1,1.036976405E0
1.621289152E1,-2.293259501E-1,-9.550008774E-1,-4.866600037E-3,9.821612653E-1
1.623182381E1,-2.057359517E-1,-9.116114378E-1,2.886400223E-1,9.780980308E-1
1.625070798E1,-3.335917890E-1,-8.067572713E-1,2.677059174E-1,9.131304587E-1
1.626964152E1,-4.049924612E-1,-6.552512050E-1,-7.261180878E-2,7.737218557E-1
1.628857277E1,-4.269761443E-1,-4.620487094E-1,-5.880155563E-1,8.611387415E-1
1.630745637E1,-4.250835180E-1,-3.078925014E-1,-9.874849319E-1,1.118311352E0
1.632639215E1,-4.027557969E-1,-2.707615495E-1,-1.128623962E0,1.228542265E0
1.634536980E1,-4.276227951E-1,-2.112700939E-1,-8.033094406E-1,9.342389228E-1
1.636430215E1,-4.324982762E-1,-1.658190489E-1,-4.088697433E-1,6.178391238E-1
1.638283923E1,-5.113869905E-1,-1.120309830E-1,-2.000694275E-1,5.604421211E-1
1.640140048E1,-5.753115416E-1,-5.202889442E-2,1.729488373E-2,5.779182370E-1
1.642000949E1,-5.562862158E-1,-4.529547691E-2,2.274160385E-1,6.026807519E-1
1.643852621E1,-4.479502439E-1,-1.591229439E-2,7.566452026E-3,4.482966355E-1
1.645713199E1,-2.760932446E-1,1.196775436E-1,-3.433980942E-1,4.565878286E-1
1.647564548E1,-1.310299933E-1,2.216855288E-1,-3.946332932E-1,4.712205098E-1
1.649420678E1,-1.122060120E-1,2.188510895E-1,-1.471519470E-1,2.866002163E-1
1.651278600E1,-2.685202062E-1,1.931741238E-1,1.940546036E-1,3.835055833E-1
1.653134725E1,-3.075487614E-1,1.271327734E-1,5.229320526E-1,6.198442662E-1
1.654990850E1,-2.725690603E-1,1.680636406E-2,5.571231842E-1,6.204535348E-1
1.656845178E1,-1.460854113E-1,2.385234833E-2,5.514068604E-1,5.709285486E-1
1.658701616E1,9.387040138E-2,3.124475479E-4,6.604709625E-1,6.671084186E-1
1.660562210E1,4.959195852E-2,-1.173460484E-2,7.259292603E-1,7.277158472E-1
1.662418329E1,-1.741672456E-1,-1.371002197E-2,4.682788849E-1,4.998072710E-1
1.664269684E1,-2.399240285E-1,3.138840199E-2,8.009052277E-2,2.548789185E-1
1.666125808E1,7.869696617E-2,-1.214735508E-1,1.070346832E-1,1.800151645E-1
1.667986736E1,3.426254988E-1,-1.976789236E-1,4.866008759E-1,6.270961662E-1
1.669842840E1,3.746552467E-1,-4.070796371E-1,8.824625015E-1,1.041547143E0
1.671698965E1,3.164920807E-1,-5.229828954E-1,1.255208969E0,1.396147522E0
1.673550314E1,4.080080390E-1,-6.109992266E-1,1.727125168E0,1.876899560E0
1.675406439E1,2.085562944E-1,-6.307030320E-1,1.646718025E0,1.775658271E0
1.677267449E1,5.141824484E-3,-4.569146037E-1,7.126064301E-1,8.465254382E-1
1.679123465E1,2.417665720E-2,-2.619599104E-1,-4.797935486E-1,5.471831089E-1
1.680979584E1,1.730120480E-1,-1.954078674E-1,-1.119480133E0,1.149501271E0
1.682830939E1,3.114610314E-1,-2.187807560E-1,-1.074422836E0,1.139849738E0
1.684696241E1,3.623070717E-1,-2.501676679E-1,-8.744754791E-1,9.790595691E-1
1.686547965E1,4.505015612E-1,-2.241755724E-1,-7.147140503E-1,8.740838161E-1
1.688404090E1,8.075954914E-1,-2.585283518E-1,-8.670701981E-1,1.212789394E0
1.690255444E1,8.485110998E-1,-2.600520253E-1,-8.094949722E-1,1.201199506E0
1.692111569E1,6.526975036E-1,-2.324000597E-1,-2.997751236E-1,7.549098911E-1
1.693972470E1,3.116963506E-1,-2.440578938E-1,5.967903137E-2,4.003504181E-1
1.695828600E1,-4.378843307E-2,-1.501089334E-1,-4.808235168E-2,1.635910490E-1
1.697684720E1,-1.712183803E-1,7.931971550E-2,-3.004331589E-1,3.547780066E-1
1.699536074E1,7.408823073E-2,2.990208864E-1,-5.011320114E-1,5.882481188E-1
1.701392199E1,1.840799153E-1,4.841613173E-1,-7.620391846E-1,9.214126737E-1
1.703253126E1,1.492461264E-1,5.802843571E-1,-8.523406982E-1,1.041868037E0
1.705109225E1,1.815066189E-1,5.827437043E-1,-7.261095047E-1,9.485620119E-1
1.706965350E1,2.547625303E-1,5.344393849E-1,-5.084180832E-1,7.803962778E-1
1.708816699E1,2.842876911E-1,5.462290645E-1,-2.266798019E-1,6.561778835E-1
1.710672824E1,3.924518824E-1,5.564464927E-1,-4.162311554E-2,6.821903422E-1
1.712528954E1,5.060516596E-1,5.568344593E-1,1.970481873E-2,7.526892965E-1
1.714385527E1,6.426714063E-1,5.339986086E-1,2.084255219E-2,8.358321975E-1
1.716241204E1,5.265911222E-1,6.105206013E-1,9.747219086E-2,8.121172591E-1
1.718097329E1,5.649513602E-1,5.865579247E-1,1.590156555E-1,8.297627475E-1
1.719958230E1,6.928319931E-1,5.366681218E-1,1.928024292E-1,8.973302738E-1
1.721811381E1,7.488567233E-1,5.325151682E-1,2.968997955E-1,9.656646856E-1
1.723667501E1,9.766004086E-1,5.101431608E-1,2.528448105E-1,1.130453405E0
1.725521834E1,1.185298920E0,4.937710762E-1,1.585693359E-1,1.293788097E0
1.727377960E1,1.247474194E0,4.608874321E-1,2.374649048E-1,1.350925116E0
1.729238975E1,1.099695683E0,3.018720150E-1,4.849281311E-1,1.239198370E0
1.731095090E1,8.300433159E-1,2.572926283E-1,5.734272003E-1,1.041148480E0
1.732951220E1,7.245439291E-1,3.218089342E-1,4.128561020E-1,8.938540464E-1
1.734802460E1,7.863734365E-1,2.843635082E-1,2.844171524E-1,8.832547214E-1
1.736658584E1,1.208890915E0,1.386165619E-3,5.331497192E-1,1.321237219E0
1.738519491E1,1.197731614E0,-1.882330179E-1,1.253050804E0,1.743596572E0
1.740375610E1,8.559421301E-1,-4.182996154E-1,1.787936211E0,2.025913965E0
1.742226965E1,4.491620064E-1,-7.275564075E-1,1.641136169E0,1.850516890E0
1.744083090E1,1.454086900E-1,-7.707855105E-1,1.327108383E0,1.541580569E0
1.745944017E1,1.574368328E-1,-6.360598803E-1,9.341220856E-1,1.141026993E0
1.747800110E1,4.370672107E-1,-4.124398232E-1,5.093345642E-1,7.877538021E-1
1.749656241E1,6.300747395E-1,-3.202626705E-1,-2.299947739E-1,7.432764973E-1
1.751507590E1,4.688292146E-1,-4.462412596E-1,-9.167423248E-1,1.122207015E0
1.753363715E1,8.177142590E-3,-6.042472124E-1,-1.095524788E0,1.251141927E0
1.755224621E1,-2.723011971E-1,-8.381002545E-1,-6.468086243E-1,1.093124593E0
1.757080741E1,-5.926760659E-2,-1.108130455E0,-1.124773026E-1,1.115399883E0
1.758936866E1,2.929257154E-1,-1.231867313E0,4.100179672E-1,1.330946012E0
1.760788220E1,5.214224458E-1,-1.181535244E0,7.673368454E-1,1.502235912E0
1.762644652E1,5.203037262E-1,-1.050915956E0,3.485584259E-1,1.223369646E0
1.764502267E1,3.234327435E-1,-8.407322764E-1,-5.672416687E-1,1.064519897E0
1.766358392E1,2.328955531E-1,-6.007034183E-1,-1.299372673E0,1.450329024E0
1.768212720E1,9.378296137E-2,-4.172523022E-1,-1.622551918E0,1.677965868E0
1.770068845E1,2.052273974E-2,-3.554673195E-1,-1.486094475E0,1.528154111E0
1.771925277E1,-1.673993468E-2,-3.837779760E-1,-9.766731262E-1,1.049502814E0
1.773785871E1,-3.028684668E-2,-3.989423513E-1,-5.399265289E-1,6.720066588E-1
1.775637225E1,6.521256175E-3,-2.826560736E-1,-3.836946487E-1,4.766115464E-1
1.777493350E1,4.160892218E-2,-1.998715401E-1,-4.935789108E-1,5.341348857E-1
1.779349475E1,8.409415185E-2,-1.426963806E-1,-6.258764267E-1,6.474221072E-1
1.781210486E1,3.609172255E-2,-1.208972931E-1,-6.101350784E-1,6.230438041E-1
1.783066501E1,-4.535762221E-2,-1.124107838E-1,-4.719629288E-1,4.872807244E-1
1.784922626E1,-5.182008445E-2,-6.073701382E-2,-3.996868134E-1,4.075829422E-1
1.786773975E1,-3.358532488E-2,1.990687847E-2,-3.570566177E-1,3.591847521E-1
1.788637605E1,-1.325243711E-1,7.187354565E-2,-2.802495956E-1,3.182268866E-1
1.790491001E1,-2.899726331E-1,1.333334446E-1,-8.647251129E-2,3.306651337E-1
1.792347241E1,-3.905578256E-1,2.111687660E-1,1.323461533E-1,4.632959822E-1
1.794198475E1,-2.938474119E-1,2.037316561E-1,3.254384995E-1,4.834905439E-1
1.796054605E1,-2.539824545E-1,2.841289043E-1,2.738695145E-1,4.692982340E-1
1.797915501E1,-3.272319734E-1,3.556718826E-1,1.540594101E-1,5.072647774E-1
1.799768652E1,-3.426772654E-1,3.858072758E-1,3.361368179E-1,6.158432614E-1
1.801624777E1,-3.504291475E-1,3.893022537E-1,7.791337967E-1,9.388324160E-1
1.803479105E1,-3.969097137E-1,3.441064358E-1,9.703884125E-1,1.103449243E0
1.805335230E1,-5.311719775E-1,4.983091354E-1,7.698717117E-1,1.059791544E0
1.807196131E1,-4.458863139E-1,5.264698267E-1,4.480438232E-1,8.226350047E-1
1.809052256E1,-1.707013324E-2,3.042278290E-1,4.291858673E-1,5.263520401E-1
1.810908381E1,3.402725756E-1,1.115846634E-1,7.603206635E-1,8.404308860E-1
1.812759730E1,2.180534303E-1,3.863930702E-3,1.098983765E0,1.120414005E0
1.814625038E1,1.590740830E-1,-6.841671467E-2,1.342085838E0,1.353210925E0
1.816476756E1,3.234211206E-1,-1.163519621E-1,1.428329468E0,1.469103151E0
1.818332881E1,3.235212564E-1,-1.160402298E-1,1.325209618E0,1.369055101E0
1.820184236E1,1.686978936E-1,-2.120271921E-1,9.171857834E-1,9.563703628E-1
1.822040360E1,-9.988701344E-2,-2.275165915E-1,3.461847305E-1,4.261280119E-1
1.823898282E1,-1.484123468E-1,-2.417413592E-1,-3.332319260E-1,4.376169854E-1
1.825754407E1,4.634137079E-2,-3.594281673E-1,-1.005356789E0,1.068680683E0
1.827610532E1,2.771828175E-1,-4.072254300E-1,-1.350082397E0,1.437144859E0
1.829464861E1,4.639304280E-1,-4.577372670E-1,-1.199419022E0,1.365049756E0
1.831320986E1,4.702560306E-1,-4.249102473E-1,-7.885274887E-1,1.011664496E0
1.833181887E1,4.274168015E-1,-3.404739499E-1,-3.681888580E-1,6.589162829E-1
1.835038006E1,3.405580223E-1,-3.783425689E-1,-1.054639816E-1,5.198514378E-1
1.836894137E1,1.748674661E-1,-3.270350099E-1,1.552486420E-2,3.711759014E-1
1.838745486E1,-1.955174655E-2,-2.141395807E-1,-1.452255249E-1,2.594773283E-1
1.840601611E1,-1.482028514E-2,-2.274879813E-1,-5.286140442E-1,5.756763242E-1
1.842459538E1,5.295687169E-2,-4.317378998E-2,-7.790040970E-1,7.819947503E-1
1.844315657E1,5.737047642E-2,1.009763479E-1,-8.286228180E-1,8.367217990E-1
1.846169991E1,1.608110219E-1,6.003677845E-2,-9.255552292E-1,9.413379212E-1
1.848026116E1,1.845355779E-1,1.133980751E-1,-1.053714752E0,1.075744989E0
1.849887012E1,1.974155158E-1,2.480895519E-1,-1.032520294E0,1.080101601E0
1.851743137E1,3.629322648E-1,3.584074974E-1,-9.472179413E-1,1.075824145E0
1.853599381E1,5.211835504E-1,5.049557686E-1,-8.408498764E-1,1.110693988E0
1.855450616E1,4.096170664E-1,6.174396276E-1,-6.753854752E-1,1.002578363E0
1.857306741E1,1.799540073E-1,7.338886261E-1,-3.707151413E-1,8.416683885E-1
1.859162866E1,1.227657497E-2,8.436230421E-1,2.396392822E-2,8.440526176E-1
1.861018991E1,-4.594349861E-2,8.975440264E-1,2.432518005E-1,9.310572071E-1
1.862884230E1,8.508522809E-2,8.970913887E-1,2.830410004E-1,9.445235114E-1
1.864731241E1,4.333670139E-1,9.750384092E-1,3.603248596E-1,1.126206408E0
1.866587366E1,7.486212254E-1,8.790570498E-1,5.516471863E-1,1.279644347E0
1.868443491E1,6.610033512E-1,6.621245146E-1,6.522684097E-1,1.140521101E0
1.870299616E1,3.062150180E-1,4.507883787E-1,7.967796326E-1,9.653163122E-1
1.872155741E1,1.594538987E-1,2.447521687E-1,8.244552612E-1,8.746745953E-1
1.874011866E1,-4.960818589E-2,3.907836676E-1,7.503652573E-1,8.474791244E-1
1.875867991E1,1.781412959E-1,5.077673197E-1,7.442274094E-1,9.183879404E-1
1.877724116E1,7.798079848E-1,3.543627262E-1,8.656854630E-1,1.217819673E0
1.879580246E1,9.985492826E-1,5.331397057E-3,1.354151726E0,1.682514781E0
1.881436371E1,5.846753716E-1,-4.360391498E-1,1.846149445E0,1.985004585E0
1.883292496E1,-9.020379931E-2,-8.538055420E-1,1.918201447E0,2.101574985E0
1.885148621E1,-5.827811360E-1,-1.051645398E0,1.598531723E0,2.000223879E0
1.887005074E1,-5.635149479E-1,-1.003532290E0,9.953718185E-1,1.521640960E0
1.888859579E1,-1.836906970E-1,-1.041379690E0,-1.889667511E-1,1.074207784E0
1.890716996E1,-3.236356080E-1,-8.322043419E-1,-1.092966080E0,1.411339408E0
1.892573121E1,-8.522615433E-1,-9.115728736E-1,-1.246079445E0,1.763527381E0
1.894429246E1,-1.316630602E0,-1.249859571E0,-4.774427414E-1,1.877129900E0
1.896285371E1,-1.436398864E0,-1.522840261E0,-1.821517944E-4,2.093390597E0
1.898141496E1,-1.066767216E0,-1.751267076E0,-2.671194077E-1,2.067917174E0
1.899997621E1,-5.876490474E-1,-1.782457829E0,-5.686903000E-1,1.961095605E0
1.901853746E1,-3.925402164E-1,-1.672315359E0,-4.632606506E-1,1.779139374E0
1.903709871E1,-6.510691643E-1,-1.585128188E0,-3.176755905E-1,1.742825353E0
1.905565996E1,-1.033218503E0,-1.350973606E0,-3.290357590E-1,1.732320608E0
1.907422121E1,-1.136041641E0,-1.037368059E0,-3.671455383E-1,1.581619090E0
1.909278246E1,-1.124299407E0,-8.035252094E-1,-4.858131409E-1,1.464826381E0
1.911139168E1,-1.044800162E0,-6.647526026E-1,-6.238641739E-1,1.386618156E0
1.912990496E1,-1.119790792E0,-6.340454221E-1,-8.501539230E-1,1.542305647E0
1.914846965E1,-1.170228481E0,-5.829296112E-1,-9.476814270E-1,1.614726515E0
1.916702746E1,-1.059927940E0,-5.821928382E-1,-9.101381302E-1,1.513521442E0
1.918558871E1,-1.052256227E0,-5.480594635E-1,-7.722015381E-1,1.415594418E0
1.920414996E1,-9.773761034E-1,-5.053328872E-1,-5.833225250E-1,1.245347559E0
1.922271121E1,-9.527636766E-1,-3.925418854E-1,-4.698715210E-1,1.132531236E0
1.924127246E1,-9.970627427E-1,-2.874418497E-1,-3.872861862E-1,1.107586349E0
1.925983371E1,-1.087562799E0,-2.130417824E-1,-3.159761429E-1,1.152397747E0
1.927839496E1,-1.286764503E0,-1.911105514E-1,-3.271608353E-1,1.341387468E0
1.929695621E1,-1.480698586E0,-1.247678995E-1,-3.576402664E-1,1.528378844E0
1.931551746E1,-1.613502979E0,9.778857231E-3,-4.368600845E-1,1.671626221E0
1.933407871E1,-1.666951180E0,1.163254976E-1,-2.871656418E-1,1.695500505E0
1.935263996E1,-1.552845955E0,2.042909861E-1,5.597591400E-2,1.567226426E0
1.937120121E1,-1.469279051E0,2.367970943E-1,4.267330170E-1,1.548210212E0
1.938976543E1,-1.503803015E0,2.668861747E-1,8.896312714E-1,1.767511114E0
1.940832376E1,-1.561478257E0,2.960209250E-1,1.234735489E0,2.012564151E0
1.942688496E1,-1.523349285E0,2.796636224E-1,1.604526520E0,2.230091957E0
1.944544621E1,-1.337705612E0,2.585886121E-1,1.926753044E0,2.359809668E0
1.946400746E1,-1.161988258E0,2.652441263E-1,1.899296761E0,2.242297782E0
1.948256871E1,-1.119949222E0,2.639884949E-1,1.213059425E0,1.671971696E0
1.950113001E1,-1.006960630E0,2.046456337E-1,3.194227219E-1,1.076048522E0
1.951969126E1,-6.393513680E-1,1.427189112E-1,-1.750354767E-1,6.780680478E-1
1.953825246E1,-2.475638688E-1,1.147055626E-1,-1.817388535E-1,3.278326495E-1
1.955681371E1,-5.758631229E-2,5.556100607E-2,2.523860931E-1,2.647677261E-1
1.957537496E1,-3.525650501E-2,-3.113842010E-1,1.165346146E0,1.206745533E0
1.959393621E1,-5.745686293E-1,-5.203567743E-1,2.168264389E0,2.302666008E0
1.961249746E1,-1.054133892E0,-5.852082968E-1,2.415359497E0,2.699560800E0
1.963107673E1,-1.015134335E0,-6.334484220E-1,1.595392227E0,1.994249478E0
1.964961996E1,-7.895272970E-1,-5.331183672E-1,5.412378311E-1,1.095676474E0
1.966827267E1,-3.675234318E-1,-5.581336021E-1,-3.460960388E-1,7.525749523E-1
1.968674246E1,-8.909481764E-2,-6.160086393E-1,-8.444747925E-1,1.049067303E0
1.970530371E1,-1.792359352E-2,-7.387349010E-1,-9.163084030E-1,1.177145530E0
1.972386496E1,4.666566849E-2,-9.182374477E-1,-7.805547714E-1,1.206069420E0
1.974242621E1,9.508138895E-2,-9.655139446E-1,-6.066541672E-1,1.144240764E0
1.976098746E1,4.834759235E-2,-8.235152364E-1,-4.770212173E-1,9.529239613E-1
1.977954871E1,-2.755814791E-1,-5.692223310E-1,-3.028726578E-1,7.012068601E-1
1.979810996E1,-5.608425140E-1,-3.972040415E-1,-3.567371368E-1,7.743234214E-1
1.981667121E1,-6.910248399E-1,-3.406242728E-1,-8.394966125E-1,1.139427394E0
1.983523246E1,-7.435830235E-1,-2.654298544E-1,-1.431154251E0,1.634494176E0
1.985379371E1,-7.705353498E-1,-2.628474236E-1,-1.706886292E0,1.891103991E0
1.987240407E1,-6.520035267E-1,-3.694996238E-1,-1.508179665E0,1.684115338E0
1.989091621E1,-4.583995640E-1,-4.071544409E-1,-1.078121185E0,1.240262145E0
1.990948064E1,-3.755009472E-1,-4.193482399E-1,-7.023553848E-1,9.000872148E-1
1.992803871E1,-3.476274610E-1,-4.654718637E-1,-4.054965973E-1,7.084746982E-1
1.994659996E1,-2.969165444E-1,-5.414340496E-1,-1.678056717E-1,6.398976542E-1
1.996516121E1,-2.713742554E-1,-5.624683499E-1,7.969093323E-2,6.295754729E-1
1.998372246E1,-1.900815070E-1,-6.206465960E-1,1.362257004E-1,6.632425030E-1
2.000228371E1,-2.678118348E-1,-6.085337996E-1,1.472740173E-1,6.809744491E-1
2.002084496E1,-2.902242541E-1,-5.269199014E-1,2.656745911E-1,6.576151523E-1
2.003940621E1,-1.939220726E-1,-4.128803313E-1,3.896198273E-1,5.998996150E-1
2.005796746E1,-3.799152374E-2,-3.280564547E-1,3.261461258E-1,4.641505022E-1
2.007652871E1,3.907370567E-2,-2.358885407E-1,2.939538956E-1,3.789182641E-1
2.009508996E1,1.915162802E-2,-9.213274717E-2,4.125480652E-1,4.231443419E-1
2.011365121E1,1.711850166E-1,-1.019074917E-1,4.521694183E-1,4.941119607E-1
2.013221246E1,3.811069727E-1,-1.456019282E-1,5.094318390E-1,6.526585974E-1
2.015082256E1,4.698706865E-1,-1.908896565E-1,8.204565048E-1,9.645549229E-1
2.016933496E1,5.391809344E-1,-3.516120315E-1,1.329104424E0,1.476775430E0
2.018789621E1,3.193175197E-1,-5.362548828E-1,1.393921852E0,1.527269167E0
2.020645746E1,-9.199431539E-2,-4.617632031E-1,1.056718826E0,1.156867705E0
2.022501871E1,-3.241471350E-1,-2.916226983E-1,2.923030853E-1,5.249345264E-1
2.024357996E1,-4.861195087E-1,4.672527313E-3,-3.145380020E-1,5.790234572E-1
2.026214121E1,-1.793195158E-1,4.436957836E-2,-8.858394623E-2,2.048688941E-1
2.028070246E1,7.748695612E-1,-5.542483330E-1,7.697172165E-1,1.224776978E0
2.029926371E1,5.758625269E-1,-1.036060691E0,1.939666748E0,2.273179821E0
2.031782496E1,-6.269375682E-1,-1.369818449E0,2.014343262E0,2.515359234E0
2.033638621E1,-1.424009323E0,-1.420287848E0,7.256879807E-1,2.138140119E0
2.035494741E1,-1.605072021E0,-1.122508407E0,-3.613128662E-1,1.991689811E0
2.037350871E1,-8.759311438E-1,-9.097721577E-1,-5.862140656E-1,1.392331741E0
2.039211782E1,-4.690366387E-1,-9.015846252E-1,-4.498033524E-1,1.111383490E0
2.041063116E1,-8.004357219E-1,-1.021457076E0,-1.532335281E-1,1.306733491E0
2.042919559E1,-9.790946245E-1,-1.222525001E0,-8.085250854E-3,1.566288298E0
2.044775366E1,-8.895870447E-1,-1.378741980E0,-8.743953705E-2,1.643149485E0
2.046631491E1,-6.283753514E-1,-1.376219153E0,-1.831245422E-1,1.523932196E0
2.048487616E1,-5.280289054E-1,-1.169747353E0,-1.730480194E-1,1.295016993E0
2.050343741E1,-5.202921033E-1,-9.246273041E-1,-5.456161499E-2,1.062363635E0
2.052199866E1,-5.202302933E-1,-7.962503433E-1,-9.665012360E-2,9.560310736E-1
2.054055991E1,-7.736256719E-1,-7.585251927E-1,-2.817869186E-1,1.119491409E0
2.055912116E1,-9.018086195E-1,-7.356852293E-1,-4.309749603E-1,1.241060417E0
2.057768241E1,-8.421975374E-1,-7.225059271E-1,-6.619930267E-1,1.292109235E0
2.059624366E1,-7.191807032E-1,-6.973867416E-1,-9.574375153E-1,1.385732928E0
2.061480491E1,-5.659947991E-1,-5.603426099E-1,-1.075082779E0,1.337959990E0
2.063336605E1,-3.735098839E-1,-4.332862496E-1,-8.035850525E-1,9.864053650E-1
2.065192736E1,-3.745620549E-1,-3.587235808E-1,-5.366849899E-1,7.463311054E-1
2.067053663E1,-4.198549688E-1,-3.089327216E-1,-3.471260071E-1,6.262699786E-1
2.068904986E1,-5.046539307E-1,-2.825590372E-1,-2.414798737E-1,6.267597056E-1
2.070761110E1,-6.965646148E-1,-3.142490387E-1,-2.445507050E-1,8.023464141E-1
2.072617236E1,-8.319078684E-1,-2.104344368E-1,-2.522296906E-1,8.944121927E-1
2.074473360E1,-7.663285732E-1,3.054928780E-2,-2.325105667E-1,8.014074524E-1
2.076329486E1,-5.570418835E-1,2.061563730E-1,-2.284622192E-2,5.944056359E-1
2.078185611E1,-4.019775689E-1,2.111409903E-1,3.630352020E-1,5.813441679E-1
2.080041736E1,-3.414616287E-1,1.886714697E-1,7.077980042E-1,8.081899418E-1
2.081897860E1,-4.790307581E-1,1.116120815E-1,7.616510391E-1,9.066642319E-1
2.083753986E1,-7.278083563E-1,3.254759312E-2,7.521066666E-1,1.047104955E0
2.085610110E1,-7.582240701E-1,-2.387213707E-2,9.291191101E-1,1.199473193E0
2.087466236E1,-5.502505898E-1,-5.564212799E-2,7.113552094E-1,9.010538230E-1
2.089322355E1,-4.280920625E-1,1.341801882E-1,1.492910385E-1,4.728159801E-1
2.091183256E1,-1.804323494E-1,3.285516500E-1,-1.082983017E-1,3.901673252E-1
2.093034605E1,1.858835816E-1,3.599443436E-1,-4.618644714E-2,4.077325401E-1
2.094891053E1,4.190677404E-1,3.026365042E-1,2.510681152E-1,5.746667062E-1
2.096746855E1,5.525354743E-1,-1.344764233E-2,3.676557541E-1,6.638125059E-1
2.098602980E1,5.475683212E-1,-2.600091696E-1,1.320112228E0,1.452629385E0
2.100457814E1,3.218818903E-1,-4.084188342E-1,2.305091858E0,2.363019756E0
2.102315230E1,-2.619349957E-1,-3.909873068E-1,2.201402664E0,2.251145199E0
2.104171355E1,-5.815526843E-1,-1.748549938E-1,8.676242828E-1,1.059032431E0
2.106026184E1,-5.984386206E-1,7.212674618E-2,-3.780145645E-1,7.114956508E-1
2.107883605E1,-2.163407207E-1,1.675025821E-1,-1.051153183E0,1.086178363E0
2.109739725E1,-2.152647078E-1,1.233597398E-1,-1.396674156E0,1.418539819E0
2.111595850E1,-1.354061961E-1,-1.028617620E-1,-1.268495560E0,1.279842320E0
2.113451975E1,1.030986905E-1,-3.596148491E-1,-6.811275482E-1,7.771016128E-1
2.115308100E1,3.219655752E-1,-4.820804000E-1,-6.865215302E-2,5.837606203E-1
2.117164225E1,4.577232599E-1,-5.058372021E-1,2.423954010E-1,7.239733338E-1
2.119022173E1,2.991051674E-1,-3.714647889E-1,1.040849686E-1,4.881430848E-1
2.120876475E1,4.685139656E-2,-2.830484509E-1,-5.564250946E-1,6.260354342E-1
2.122741834E1,-2.724786997E-1,-1.063217521E-1,-1.101202965E0,1.139384451E0
2.124588725E1,-4.520550668E-1,1.608055830E-2,-1.481108665E0,1.548643034E0
2.126444850E1,-3.853534460E-1,1.198704243E-1,-1.610416412E0,1.660213004E0
2.128300975E1,-2.648086846E-1,2.026185393E-1,-1.553398132E0,1.588780561E0
2.130157095E1,-6.684353948E-2,2.471982241E-1,-1.353918076E0,1.377922050E0
2.132013220E1,2.598224580E-1,3.607090712E-1,-1.073097229E0,1.161531922E0
2.133869345E1,4.310457706E-1,4.722148180E-1,-8.328914642E-1,1.049997849E0
2.135725470E1,5.060983896E-1,4.704395533E-1,-4.763269424E-1,8.392474661E-1
2.137581595E1,5.647941232E-1,5.515901446E-1,-9.185695648E-2,7.947841151E-1
2.139437720E1,5.108531713E-1,5.770045519E-1,1.031417847E-1,7.775239182E-1
2.141293845E1,3.999897242E-1,5.257938504E-1,8.761501312E-2,6.664287982E-1
2.143154881E1,2.616551220E-1,5.154877901E-1,7.157897949E-2,5.825071802E-1
2.145006095E1,3.427205086E-1,5.527824759E-1,1.644630432E-1,6.708754767E-1
2.146862532E1,5.463994741E-1,5.618153214E-1,3.092060089E-1,8.424946271E-1
2.148718340E1,6.452146769E-1,5.436817408E-1,5.362024307E-1,9.997023863E-1
2.150574465E1,6.160382628E-1,5.154246688E-1,8.391799927E-1,1.161631951E0
2.152430590E1,6.751124859E-1,3.939823508E-1,1.082253456E0,1.335017417E0
2.154286715E1,6.396628618E-1,3.342475295E-1,1.191805840E0,1.393302245E0
2.156142840E1,5.542872548E-1,3.280061483E-1,1.126510620E0,1.297631909E0
2.157998965E1,3.796787560E-1,4.473767877E-1,8.884162903E-1,1.064699701E0
2.159855090E1,3.482006788E-1,4.879124761E-1,7.715768814E-1,9.770533153E-1
2.161711210E1,6.459105611E-1,4.461753964E-1,1.060970306E0,1.319822309E0
2.163567334E1,1.017674208E0,1.186313033E-1,1.669126511E0,1.958498784E0
2.165423460E1,7.393754125E-1,-2.018097043E-1,2.221623421E0,2.350109313E0
2.167279585E1,1.090527773E-1,-5.885540843E-1,2.416644096E0,2.489670080E0
2.169135710E1,-4.238725305E-1,-8.015167117E-1,1.909782410E0,2.114087466E0
2.170993657E1,-6.324350238E-1,-7.339827418E-1,1.012260437E0,1.401205166E0
2.172846663E1,-6.745312214E-1,-6.758106947E-1,5.004024506E-2,9.561466884E-1
2.174704079E1,-8.022217155E-1,-6.569161415E-1,-7.038822174E-1,1.253215334E0
2.176560204E1,-8.549526930E-1,-7.500401735E-1,-1.273490906E0,1.707420117E0
2.178416329E1,-7.539120317E-1,-8.871353269E-1,-1.468862534E0,1.874286419E0
2.180272454E1,-5.558031797E-1,-1.067678928E0,-1.224115372E0,1.716774275E0
2.182128579E1,-1.697899997E-1,-1.237868905E0,-7.612066269E-1,1.463073340E0
2.183984704E1,-7.501077652E-2,-1.366585851E0,-3.948745728E-1,1.424468123E0
2.185840829E1,-3.260485828E-1,-1.367996335E0,-3.149757385E-1,1.441156260E0
2.187696949E1,-6.460046768E-1,-1.263204217E0,-5.960741043E-1,1.538931861E0
2.189553074E1,-8.443726301E-1,-1.144907355E0,-1.032190323E0,1.757610552E0
2.191409199E1,-9.360132217E-1,-9.275205135E-1,-1.296249390E0,1.848425691E0
2.193265324E1,-9.212076664E-1,-7.454612851E-1,-1.332365990E0,1.783125128E0
2.195126355E1,-7.824484110E-1,-6.455538869E-1,-1.176759720E0,1.553617963E0
2.196977574E1,-6.317442656E-1,-5.259745717E-1,-1.001422882E0,1.295607138E0
2.198834012E1,-5.657861829E-1,-4.474939704E-1,-8.977947235E-1,1.151694501E0
2.200689819E1,-6.168953776E-1,-3.179916143E-1,-9.006929398E-1,1.137069191E0
2.202545944E1,-5.124563575E-1,-1.724953651E-1,-7.812204361E-1,9.500902794E-1
2.204402069E1,-3.141320944E-1,-2.210390568E-2,-5.225248337E-1,6.100817627E-1
2.206258194E1,-3.528019488E-1,1.389700174E-1,-8.891010284E-2,3.894700081E-1
2.208114319E1,-4.512652159E-1,1.497277021E-1,2.727832794E-1,5.481508892E-1
2.209970444E1,-4.592661262E-1,1.218355298E-1,4.757289886E-1,6.723744058E-1
2.211826569E1,-5.300506353E-1,1.706609130E-1,5.245103836E-1,7.649771015E-1
2.213682689E1,-3.955633044E-1,2.317939997E-1,6.147069931E-1,7.668529673E-1
2.215538814E1,-2.750521898E-1,2.586778402E-1,6.363973618E-1,7.399794147E-1
2.217394939E1,-3.883240819E-1,2.924695611E-1,7.533216476E-1,8.965642986E-1
2.219255975E1,-5.278390646E-1,2.699202299E-1,8.880138397E-1,1.067726364E0
2.221107189E1,-6.302220225E-1,2.021672130E-1,1.103623390E0,1.286870610E0
2.222972491E1,-6.611713767E-1,1.736026406E-1,1.240668297E0,1.416525075E0
2.224819434E1,-6.691178083E-1,3.284550309E-1,1.005577087E0,1.251713477E0
2.226675559E1,-4.241217375E-1,4.121300578E-1,4.941034317E-1,7.706287264E-1
2.228531684E1,1.126028299E-1,2.294924259E-1,1.636743546E-1,3.035382434E-1
2.230387808E1,3.839607239E-1,7.154655457E-2,3.373651505E-1,5.161007573E-1
2.232243934E1,4.209230542E-1,3.416210413E-2,1.067088127E0,1.147615065E0
2.234100058E1,3.167346716E-1,-1.012899876E-1,1.906060219E0,1.934850400E0
2.235956178E1,3.435844481E-1,-2.546757758E-1,2.634569168E0,2.669056898E0
2.237812303E1,1.244516671E-1,-2.341122627E-1,2.800922394E0,2.813443269E0
2.239668428E1,-2.692940831E-2,-1.504769325E-1,1.731807709E0,1.738541469E0
2.241524553E1,-6.197044253E-2,-2.068313360E-1,1.854419708E-2,2.167104625E-1
2.243380678E1,1.373181641E-1,-1.692823768E-1,-1.173999786E0,1.194063775E0
2.245236803E1,4.150055647E-1,-1.000708938E-1,-1.515148163E0,1.574140323E0
2.247097725E1,5.531894565E-1,-7.144564390E-2,-1.621540070E0,1.714793064E0
2.248949048E1,5.169104338E-1,-2.179262638E-1,-1.656907082E0,1.749293952E0
2.250805480E1,3.920169473E-1,-3.983988762E-1,-1.504615784E0,1.605075577E0
2.252661298E1,2.120160758E-1,-5.174543858E-1,-1.136605263E0,1.266720719E0
2.254517423E1,6.376546621E-2,-5.763799548E-1,-6.987371445E-1,9.080272485E-1
2.256373543E1,-5.694642663E-3,-5.609506369E-1,-4.129896164E-1,6.966049592E-1
2.258229668E1,-1.883219779E-1,-5.004184246E-1,-4.544687271E-1,7.017304261E-1
2.260085793E1,-1.780712157E-1,-3.036070466E-1,-5.347003937E-1,6.401492854E-1
2.261941918E1,-6.452725828E-2,-9.039038420E-2,-7.112512589E-1,7.198698089E-1
2.263798043E1,8.314381540E-2,-1.552999020E-2,-1.033543587E0,1.036998756E0
2.265654163E1,2.271056622E-1,9.494405985E-2,-1.210297585E0,1.235075544E0
2.267510288E1,2.904393673E-1,2.960153818E-1,-9.453010559E-1,1.032266544E0
2.269366413E1,3.919783831E-1,2.929837704E-1,-5.765171051E-1,7.562132735E-1
2.271227314E1,5.108208060E-1,2.588614821E-1,-4.552326202E-1,7.315626435E-1
2.273078663E1,4.703852236E-1,2.109931707E-1,-6.084833145E-1,7.975163451E-1
2.274935100E1,4.686285853E-1,9.711343050E-2,-7.011098862E-1,8.488809350E-1
2.276790907E1,5.512715578E-1,1.799604297E-1,-3.167905807E-1,6.607891939E-1
2.278647032E1,7.125281692E-1,3.150712252E-1,2.194786072E-1,8.094054162E-1
2.280503157E1,9.661985040E-1,3.855083585E-1,3.439064026E-1,1.095640387E0
2.282359282E1,9.653638601E-1,4.455951452E-1,2.199277878E-1,1.085748888E0
2.284215402E1,8.998189569E-1,4.127198458E-1,1.063785553E-1,9.956546707E-1
2.286071527E1,1.005677342E0,3.345727324E-1,1.526260376E-1,1.070803688E0
2.287927652E1,1.249383211E0,2.756711245E-1,2.314023972E-1,1.300192311E0
2.289783777E1,1.405659080E0,1.523496509E-1,4.440660477E-1,1.481986005E0
2.291639902E1,1.353768468E0,-4.011851549E-2,7.165317535E-1,1.532225934E0
2.293496022E1,1.001436472E0,-3.555662632E-1,6.337471008E-1,1.237310698E0
2.295352147E1,4.151490629E-1,-5.188162923E-1,1.519498825E-1,6.816214905E-1
2.297208272E1,8.571299911E-2,-5.425719023E-1,-2.329254150E-1,5.966449835E-1
2.299066194E1,1.645185202E-1,-7.889899015E-1,-3.199043274E-1,8.671275494E-1
2.300920522E1,3.178654909E-1,-1.146350384E0,3.881959915E-1,1.251340801E0
2.302776642E1,8.552590013E-2,-1.287502527E0,1.541468620E0,2.010249473E0
2.304632767E1,-5.376115441E-1,-1.378734350E0,1.694931030E0,2.250050172E0
2.306488892E1,-8.967952728E-1,-1.322970867E0,5.884866714E-1,1.703176514E0
2.308345017E1,-1.284859180E0,-1.065912604E0,-3.952369690E-1,1.715588836E0
2.310201142E1,-1.026971221E0,-9.545689821E-1,-7.323589325E-1,1.581841154E0
2.312057262E1,-4.493252933E-1,-8.313530087E-1,-1.295728683E-1,9.538501835E-1
2.313913387E1,2.337179184E-1,-7.896453738E-1,6.496257782E-1,1.048893481E0
2.315769512E1,5.611972809E-1,-7.932329774E-1,1.222768784E0,1.561833680E0
2.317625637E1,6.257427931E-1,-9.468871355E-1,1.308721542E0,1.732310990E0
2.319481762E1,3.420165181E-1,-9.233918190E-1,7.901992798E-1,1.262554019E0
2.321337881E1,1.544301510E-1,-7.357476950E-1,-4.575920105E-2,7.531714590E-1
2.323195824E1,3.355258703E-2,-4.829498827E-1,-8.008766174E-1,9.358256898E-1
2.325050131E1,3.532844782E-2,-2.663455606E-1,-1.348730087E0,1.375231219E0
2.326906569E1,8.825206757E-2,-3.427490592E-2,-1.422783852E0,1.425930253E0
2.328762376E1,8.666825294E-2,-2.444684505E-4,-1.175537109E0,1.178727679E0
2.330618501E1,6.702154875E-2,-1.408291757E-1,-1.017629623E0,1.029511921E0
2.332474626E1,6.506180763E-2,-2.689402699E-1,-9.212551117E-1,9.619110606E-1
2.334330751E1,1.435349584E-1,-1.989547014E-1,-6.148767471E-1,6.620110812E-1
2.336186871E1,2.176749110E-1,-2.558885515E-1,-2.658519745E-1,4.284140404E-1
2.338042996E1,1.056571603E-1,-2.946570516E-1,1.360607147E-2,3.133230581E-1
2.339899121E1,-5.195540190E-2,-3.646660745E-1,9.979057312E-2,3.816266083E-1
2.341755246E1,-5.264765024E-2,-3.723297715E-1,1.518964767E-1,4.055536629E-1
2.343611366E1,-7.884413004E-2,-3.694199324E-1,1.831541061E-1,4.198010360E-1
2.345467491E1,-8.036202192E-2,-3.484143913E-1,1.612215042E-1,3.922282703E-1
2.347323616E1,-1.921020150E-1,-2.404966801E-1,2.187137604E-1,3.775944204E-1
2.349179741E1,-3.419462442E-1,-2.359401882E-1,2.136716843E-1,4.671729819E-1
2.351040663E1,-4.371386170E-1,-1.762562692E-1,5.273628235E-2,4.742758253E-1
2.352891986E1,-4.635747969E-1,-1.544132829E-1,-4.994201660E-2,4.911611337E-1
2.354748111E1,-5.086548328E-1,-2.690269053E-1,-2.322549820E-1,6.205220314E-1
2.356604236E1,-5.382907987E-1,-3.333857358E-1,6.511974335E-2,6.365089266E-1
2.358460360E1,-3.260029554E-1,-3.586955369E-1,7.666311264E-1,9.070081031E-1
2.360316480E1,-9.496611357E-2,-3.967148662E-1,9.932479858E-1,1.073751745E0
2.362172605E1,-1.245024204E-1,-4.196690917E-1,8.647670746E-1,9.692497575E-1
2.364028730E1,-2.703051567E-1,-4.427088797E-1,4.659233093E-1,6.972378074E-1
2.365884855E1,-2.376770973E-2,-6.054058075E-1,3.224029541E-1,6.863124366E-1
2.367740975E1,4.871722460E-1,-8.741749525E-1,7.043771744E-1,1.223791587E0
2.369597100E1,1.242876887E0,-9.845685959E-1,1.423314095E0,2.130713798E0
2.371453225E1,1.150546074E0,-8.692217469E-1,1.882908821E0,2.371634108E0
2.373309350E1,7.063732147E-1,-1.000813723E0,1.631927490E0,2.040533891E0
2.375170272E1,2.398880720E-1,-1.153669357E0,3.652124405E-1,1.233644762E0
2.377021595E1,2.780765295E-2,-1.042397261E0,-5.932779312E-1,1.199726643E0
2.378877720E1,2.163779140E-1,-8.619359732E-1,-7.944192886E-1,1.191996237E0
2.380733840E1,6.320261955E-1,-6.546822190E-1,-3.147277832E-1,9.628704468E-1
2.382589965E1,9.147411585E-1,-6.741567254E-1,1.400880814E-1,1.144929407E0
2.384446090E1,8.129045963E-1,-7.068939209E-1,3.185653687E-2,1.077741962E0
2.386302215E1,3.804088831E-1,-4.829152822E-1,-1.750059128E-1,6.391753732E-1
2.388158335E1,-2.721011639E-2,-2.587216496E-1,-1.824827194E-1,3.177691384E-1
2.390014460E1,-6.692779064E-2,-4.689702392E-2,-8.167171478E-2,1.155375654E-1
2.391870584E1,-1.551241279E-1,2.540030181E-1,-3.340616226E-1,4.474127803E-1
2.393726710E1,-2.065709829E-1,4.200110435E-1,-6.469449997E-1,7.985102882E-1
2.395582829E1,-1.772428155E-1,5.265201330E-1,-8.941879272E-1,1.052715781E0
2.397438954E1,-1.825324297E-1,5.895066261E-1,-9.302692413E-1,1.116349861E0
2.399295079E1,-3.851079941E-2,6.055651903E-1,-6.730108261E-1,9.061654669E-1
2.401151204E1,6.739830971E-2,6.772903800E-1,-4.506950378E-1,8.163276353E-1
2.403012121E1,1.760791540E-1,6.412200928E-1,-5.764627457E-1,8.800433927E-1
2.404863449E1,2.133154869E-1,6.640741229E-1,-7.579917908E-1,1.030072567E0
2.406719574E1,2.447270155E-1,6.717882752E-1,-5.505313873E-1,9.023722111E-1
2.408575694E1,3.017401695E-1,5.234293342E-1,-1.661796570E-1,6.266107852E-1
2.410431819E1,2.811641693E-1,3.637135029E-1,-4.585552216E-2,4.619994926E-1
2.412287944E1,1.480301619E-1,2.738474011E-1,-3.571748734E-1,4.737923787E-1
2.414144069E1,5.554473400E-2,3.504698277E-1,-7.788600922E-1,8.558839645E-1
2.416000189E1,1.075986624E-1,4.175636768E-1,-1.137440681E0,1.216432571E0
2.417856314E1,1.479897499E-1,4.934833646E-1,-1.099321365E0,1.214056943E0
2.419712439E1,2.203537226E-1,4.421795011E-1,-6.554307938E-1,8.207728063E-1
2.421568559E1,9.832692146E-2,3.070188165E-1,-2.393035889E-1,4.014909025E-1
2.423424678E1,-8.899021149E-2,2.232027352E-1,-2.168378830E-1,3.236624573E-1
2.425280808E1,-1.615898609E-1,1.883298159E-1,-5.001764297E-1,5.583510218E-1
2.427141704E1,2.242064476E-2,3.869013488E-1,-7.424688339E-1,8.375292881E-1
2.428993053E1,4.842389822E-1,5.197646618E-1,-7.245674133E-1,1.014712093E0
2.430849480E1,9.155397415E-1,4.334435463E-1,-5.347089767E-1,1.145425692E0
2.432705303E1,9.521211386E-1,3.450283706E-1,-2.272386551E-1,1.037890479E0
2.434561423E1,7.022774220E-1,2.031831443E-1,-4.191017151E-2,7.322796119E-1
2.436417548E1,3.823372126E-1,1.511784941E-1,-2.061576843E-1,4.599322472E-1
2.438273673E1,2.136914730E-1,2.639137506E-1,-5.872888565E-1,6.783971657E-1
2.440129793E1,2.921192646E-1,3.792049587E-1,-9.397830963E-1,1.054666930E0
2.441985918E1,4.101105928E-1,5.568655133E-1,-1.067669868E0,1.272088380E0
2.443842043E1,6.850967407E-1,6.642893553E-1,-8.033857346E-1,1.247423958E0
2.445698168E1,9.311239123E-1,6.512701511E-1,-5.463724136E-1,1.260820116E0
2.447554288E1,8.478274941E-1,5.845387578E-1,-6.424980164E-1,1.213795996E0
2.449410413E1,6.430456042E-1,5.667300224E-1,-8.510427475E-1,1.207875956E0
2.451266538E1,5.161510110E-1,5.157011747E-1,-9.530143738E-1,1.200248293E0
2.453122657E1,6.174255610E-1,4.368057549E-1,-8.102359772E-1,1.108375356E0
2.454983584E1,7.630963326E-1,4.688989818E-1,-7.249984741E-1,1.152304237E0
2.456834907E1,8.020176291E-1,4.654408991E-1,-8.860921860E-1,1.282586009E0
2.458691027E1,7.780361176E-1,3.522596359E-1,-1.016302109E0,1.327515359E0
2.460547152E1,5.365488529E-1,3.552883565E-1,-9.526367188E-1,1.149622201E0
2.462403277E1,3.890459538E-1,3.214692473E-1,-8.191108704E-1,9.621028267E-1
2.464259402E1,4.129334688E-1,2.333812714E-1,-6.743612289E-1,8.244658480E-1
2.466115522E1,4.812173843E-1,2.191176414E-1,-5.225200653E-1,7.433773809E-1
2.467971647E1,4.433700442E-1,2.390497923E-1,-3.389701843E-1,6.071429693E-1
2.469827772E1,3.305168748E-1,1.114466488E-1,-1.810884476E-1,3.930073611E-1
2.471683892E1,5.507057905E-2,1.270545721E-1,-5.279254913E-2,1.481981316E-1
2.473540017E1,-8.460426331E-2,2.758723497E-2,-4.079818726E-2,9.789498959E-2
2.475396142E1,-1.731438339E-1,-1.397017539E-1,-9.098339081E-2,2.403608634E-1
2.477252262E1,-2.956563234E-2,-3.606652617E-1,3.164358139E-1,4.807132014E-1
2.479113157E1,2.879066169E-1,-7.548345923E-1,1.337315559E0,1.562395080E0
2.480964512E1,2.367081940E-1,-1.170101881E0,2.259641647E0,2.555611386E0
2.482820960E1,-1.070911586E-1,-1.415147305E0,2.375822067E0,2.767424959E0
2.484676756E1,-8.652404547E-1,-9.763155580E-1,1.658299446E0,2.109926578E0
2.486532881E1,-9.956334233E-1,-5.965450406E-1,9.698553085E-1,1.512538006E0
2.488389001E1,7.190051675E-1,-1.311971903E0,1.393257141E0,2.044359109E0
2.490243834E1,2.035407782E0,-1.241309404E0,3.327349663E0,4.093285924E0
2.492101251E1,1.591364980E0,-1.113125086E0,4.264513969E0,4.685890454E0
2.493957371E1,-9.753614664E-2,-1.274263144E0,1.753505707E0,2.169802323E0
2.495812204E1,-1.152724624E0,-1.022033930E0,-7.626485825E-1,1.718999788E0
2.497669621E1,-1.271739244E0,-3.844821155E-1,-1.947957516E0,2.357898574E0
2.499525741E1,-4.156276882E-1,-5.285272002E-2,-1.756289482E0,1.805572632E0
2.501381866E1,3.194136024E-1,1.493048668E-1,-6.212224960E-1,7.143069244E-1
2.503242762E1,4.784016311E-1,7.576614618E-3,4.623031616E-1,6.653192760E-1
2.505094111E1,1.421964765E-1,-3.665316403E-1,7.292385101E-1,8.284648972E-1
2.506950538E1,-5.550199151E-1,-5.430763960E-1,-2.666673660E-1,8.210301835E-1
2.508806361E1,-6.947059035E-1,-3.021859527E-1,-1.165425301E0,1.390017544E0
2.510662480E1,-2.810440063E-1,-1.209182739E-1,-1.332936287E0,1.367598665E0
2.512518605E1,-4.224637151E-2,1.324989796E-1,-8.765630722E-1,8.875266503E-1
2.514374730E1,-9.637084603E-2,1.938149631E-1,-2.662153244E-1,3.431066581E-1
2.516230850E1,-1.862090528E-1,5.459156632E-2,-1.369915009E-1,2.375304649E-1
2.518086975E1,-3.359427452E-1,2.282211185E-2,-7.281503677E-1,8.022352117E-1
2.519943095E1,-4.916023016E-1,2.108576894E-2,-1.434331894E0,1.516385642E0
2.521799220E1,-4.934919477E-1,8.040073514E-2,-1.684549332E0,1.757186681E0
2.523655345E1,-4.533767104E-1,1.419728398E-1,-1.596616745E0,1.665800636E0
2.525511465E1,-2.655882239E-1,2.556553781E-1,-1.278046608E0,1.330150333E0
2.527367590E1,1.047456264E-1,2.825874686E-1,-4.984226227E-1,5.824538046E-1
2.529223715E1,2.301926613E-1,6.594794989E-2,1.596813202E-1,2.878122955E-1
2.531081631E1,-1.271674037E-1,-2.646040022E-1,4.637165070E-1,5.488349710E-1
2.532935960E1,-6.849846840E-1,-4.349772036E-1,5.046043396E-1,9.555285053E-1
2.534792392E1,-9.461768866E-1,-4.667570591E-1,-1.932144165E-2,1.055218542E0
2.536648204E1,-9.472056627E-1,-3.508723974E-1,-5.053749084E-1,1.129475013E0
2.538504329E1,-6.863663793E-1,-1.504310071E-1,-3.695249557E-1,7.938998598E-1
2.540360454E1,-4.553030431E-1,-7.903784513E-2,3.808212280E-2,4.636788653E-1
2.542216574E1,-4.450257421E-1,-3.070621490E-1,3.031835556E-1,6.198833300E-1
2.544072699E1,-6.860241890E-1,-4.517507851E-1,4.641990662E-1,9.434981361E-1
2.545928819E1,-7.186149955E-1,-4.814450145E-1,6.021623611E-1,1.053943226E0
2.547784944E1,-1.618447900E-1,-6.391397119E-1,6.795578003E-1,9.468326733E-1
2.549641069E1,3.789353967E-1,-6.744586825E-1,9.941043854E-1,1.259654746E0
2.551497184E1,8.513593078E-1,-5.364220142E-1,1.710185051E0,1.984261615E0
2.553353314E1,8.122643828E-1,-4.839269519E-1,2.085939407E0,2.290218752E0
2.555209434E1,3.387461901E-1,-2.298156023E-1,1.841376305E0,1.886327354E0
2.557065558E1,1.521772146E-1,6.454491615E-2,1.275879860E0,1.286543185E0
2.558922006E1,2.212328315E-1,1.654782295E-1,1.177619934E0,1.209593204E0
2.560777803E1,2.026363611E-1,3.626283407E-1,1.819563866E0,1.866379776E0
2.562633928E1,1.011651754E-2,4.045392871E-1,1.890789032E0,1.933607391E0
2.564490053E1,-2.679661214E-1,4.163024426E-1,1.044362068E0,1.155770607E0
2.566346173E1,-2.342921495E-1,5.803598166E-1,2.716665268E-1,6.822851528E-1
2.568202298E1,6.399476528E-2,8.562569022E-1,1.934843063E-1,8.801746357E-1
2.570058423E1,3.735728860E-1,9.780608416E-1,3.839044571E-1,1.115142297E0
2.571914543E1,3.786423206E-1,9.824349880E-1,2.031707764E-1,1.072299807E0
2.573770668E1,1.199119687E-1,9.162391424E-1,-3.205938339E-1,9.780866284E-1
2.575626788E1,-1.008905768E-1,8.897230625E-1,-9.674148560E-1,1.318209976E0
2.577482913E1,-1.879957318E-1,9.294564724E-1,-1.614452362E0,1.872348301E0
2.579339038E1,-1.837653518E-1,9.556732178E-1,-2.097700596E0,2.312450820E0
2.581195157E1,-1.265816092E-1,1.012220025E0,-2.100181103E0,2.334817540E0
2.583051590E1,1.090493202E-1,1.041709900E0,-1.874878407E0,2.147608044E0
2.584907407E1,-6.378173828E-2,1.095790863E0,-1.707959175E0,2.030258671E0
2.586772746E1,-1.395483613E-1,1.068927050E0,-1.654110909E0,1.974376276E0
2.588619652E1,-1.308864951E-1,1.057148457E0,-1.831824780E0,2.119027172E0
2.590475772E1,1.144914627E-1,1.165699005E0,-1.858227730E0,2.196582063E0
2.592331897E1,3.950527906E-1,1.200391769E0,-1.706926346E0,2.123818414E0
2.594188017E1,4.848314226E-1,1.134132385E0,-1.527177811E0,1.963056250E0
2.596044142E1,5.107514858E-1,1.005006790E0,-1.440813065E0,1.829439263E0
2.597900267E1,7.087975740E-1,8.209050298E-1,-1.399732590E0,1.770742893E0
2.599756387E1,8.427658677E-1,7.112212777E-1,-1.250487328E0,1.667275793E0
2.601612512E1,7.594767809E-1,5.968012810E-1,-9.441995621E-1,1.350736674E0
2.603468631E1,5.628991127E-1,3.567150235E-1,-7.522163391E-1,1.004952954E0
2.605324756E1,4.268809855E-1,8.897370100E-2,-5.533361435E-1,7.045030752E-1
2.607180881E1,4.115203619E-1,-2.683532238E-2,-1.059465408E-1,4.257861110E-1
2.609037001E1,6.008043885E-1,-2.289087772E-1,1.927728653E-1,6.712127227E-1
2.610893439E1,8.353591561E-1,-3.862731457E-1,4.961204529E-2,9.216795635E-1
2.612749246E1,7.344773412E-1,-4.738758802E-1,-8.488368988E-2,8.781916393E-1
2.614605371E1,5.662724376E-1,-6.432367563E-1,7.170801163E-1,1.117417510E0
2.616461496E1,7.234616280E-1,-9.694666266E-1,2.379765511E0,2.669559168E0
2.618316324E1,8.363763094E-1,-1.061830521E0,3.869693756E0,4.098968059E0
2.620173741E1,9.941640496E-1,-1.236121655E0,4.139027596E0,4.432596117E0
2.622029860E1,1.070341945E0,-1.352336287E0,3.306890488E0,3.729607219E0
2.623885986E1,9.867401123E-1,-1.259117484E0,2.164809227E0,2.691733991E0
2.625742105E1,9.143368006E-1,-1.024937749E0,1.095221519E0,1.756706962E0
2.627598230E1,1.015504837E0,-9.231853485E-1,3.208141327E-1,1.409412278E0
2.629454355E1,1.318937659E0,-9.601533413E-1,2.274980545E-1,1.647193478E0
2.631310475E1,1.632342696E0,-8.993562460E-1,1.461809158E0,2.368600927E0
2.633166600E1,1.578474879E0,-9.756636024E-1,2.352907181E0,2.996610520E0
2.635023059E1,8.733935356E-1,-9.581900239E-1,1.714944839E0,2.149879111E0
2.636878845E1,3.559771180E-1,-8.091287613E-1,1.568851471E-1,8.977872857E-1
2.638734965E1,3.368122876E-1,-6.142345667E-1,-1.218144417E0,1.405205480E0
2.640591090E1,5.068528652E-1,-3.431999683E-1,-1.738374710E0,1.842995572E0
2.642447215E1,6.611955762E-1,-2.006214261E-1,-1.494698524E0,1.646679151E0
2.644303334E1,7.254235744E-1,-1.659645438E-1,-6.208562851E-1,9.691471090E-1
2.646159460E1,2.033333480E-1,-2.866228819E-1,-2.001161575E-1,4.044052464E-1
2.648015579E1,-1.910671294E-1,-3.941884339E-1,-1.588048935E-1,4.659508166E-1
2.649871704E1,-4.617467821E-1,-4.369332790E-1,-2.747688293E-1,6.925450820E-1
2.651727824E1,-6.661067009E-1,-3.079424202E-1,-7.361450195E-1,1.039440311E0
2.653583949E1,-4.565126896E-1,-2.863519192E-1,-1.292098999E0,1.399971814E0
2.655440074E1,-3.376011252E-1,-2.806704044E-1,-2.028671265E0,2.075634239E0
2.657296194E1,-4.193768799E-1,-1.545652747E-1,-2.377906322E0,2.419546625E0
2.659157090E1,-6.304382086E-1,-7.112801075E-2,-2.227680683E0,2.316262670E0
2.661008439E1,-7.818723917E-1,-1.629422903E-1,-1.844395638E0,2.009893006E0
2.662873762E1,-1.081271768E0,-2.048071623E-1,-1.563964844E0,1.912349508E0
2.664720684E1,-1.199038386E0,-2.029844522E-1,-1.228502274E0,1.728616087E0
2.666576809E1,-1.078776956E0,-2.587327957E-1,-1.054015160E0,1.530245188E0
2.668432928E1,-1.199123740E0,-3.525557518E-1,-9.231987000E-1,1.553862652E0
2.670289053E1,-1.458410025E0,-3.641981483E-1,-3.988456726E-1,1.555209941E0
2.672145178E1,-1.540000319E0,-4.408907890E-1,2.213716507E-1,1.617093405E0
2.674001298E1,-1.463340640E0,-4.398903251E-1,5.035562515E-1,1.608862401E0
2.675857423E1,-1.436465740E0,-3.572857082E-1,5.584869385E-1,1.582085510E0
2.677713543E1,-1.298879147E0,-3.133709431E-1,6.033563614E-1,1.466058418E0
2.679569668E1,-1.438140154E0,-2.267569304E-1,2.322340012E-1,1.474312870E0
2.681425788E1,-1.287261128E0,-7.199692726E-2,1.805706024E-1,1.301856564E0
2.683281907E1,-6.798312664E-1,-5.483579636E-2,7.454128265E-1,1.010355283E0
2.685138032E1,-1.072514057E-1,-1.806959510E-1,1.466015816E0,1.480998401E0
2.686994470E1,3.186562657E-1,-2.138118744E-1,2.226012230E0,2.258846560E0
2.688850282E1,3.146907091E-1,4.904258251E-2,2.434329987E0,2.455075946E0
2.690706402E1,3.825328350E-1,3.790342212E-1,1.898726463E0,1.973616096E0
2.692562527E1,5.870438218E-1,7.380622625E-1,9.207363129E-1,1.317995338E0
2.694418647E1,8.689057231E-1,4.914907813E-1,1.200638771E0,1.561439657E0
2.696273475E1,1.048901796E0,2.232579589E-1,3.449888229E0,3.612723057E0
2.698130892E1,5.477707386E-1,1.569874883E-1,5.695179939E0,5.723615325E0
2.699987017E1,-5.378488898E-1,-9.284731746E-2,5.044115067E0,5.073558796E0
2.701841845E1,-8.533734679E-1,5.854913592E-2,2.481660843E0,2.624940917E0
2.703699262E1,-4.536923766E-1,6.773608923E-1,8.708524704E-1,1.192911806E0
2.705555381E1,2.224326730E-1,1.191715002E0,-4.683580399E-1,1.299623097E0
2.707410215E1,9.748677611E-1,1.429273844E0,-1.059743881E0,2.028853855E0
2.709267626E1,1.043978214E0,1.393559217E0,-1.129348755E0,2.075409939E0
2.711128527E1,4.295449257E-1,9.566639662E-1,-9.994335175E-1,1.448648385E0
2.712979871E1,-1.799554825E-1,7.452517152E-1,-1.109867096E0,1.348921445E0
2.714835996E1,-3.397410512E-1,7.486652732E-1,-1.475193977E0,1.688822354E0
2.716692121E1,3.032505512E-2,7.771615386E-1,-1.669313431E0,1.841604462E0
2.718548241E1,3.894124627E-1,7.318939567E-1,-1.265721321E0,1.513063545E0
2.720404366E1,3.639406562E-1,6.385828257E-1,-8.790941238E-1,1.145882762E0
2.722260486E1,2.832025290E-2,5.397626162E-1,-8.400926590E-1,9.989501460E-1
2.724116610E1,-1.869525909E-1,4.620328248E-1,-1.017189026E0,1.132739651E0
2.725972730E1,-1.453126073E-1,4.725307226E-1,-1.333400726E0,1.422096528E0
2.727828855E1,2.247726917E-1,5.095065236E-1,-1.636360168E0,1.728523723E0
2.729684975E1,3.948799372E-1,5.867144465E-1,-1.961586952E0,2.085182816E0
2.731541100E1,4.384873509E-1,5.030679107E-1,-2.111971378E0,2.214897646E0
2.733397220E1,2.890735865E-1,4.725373387E-1,-1.858353138E0,1.939157410E0
2.735253345E1,1.141005754E-1,2.726480961E-1,-1.284045219E0,1.317622120E0
2.737109465E1,3.734952211E-2,2.471071482E-2,-8.786363602E-1,8.797769374E-1
2.738965876E1,1.470329165E-1,-1.479936838E-1,-9.160261154E-1,9.394810552E-1
2.740821710E1,4.304115176E-1,-2.016318440E-1,-1.165665627E0,1.258843051E0
2.742677835E1,5.937803388E-1,-1.578554511E-1,-1.442606926E0,1.567994954E0
2.744533954E1,7.883704901E-1,-2.986651659E-2,-1.554602623E0,1.743332829E0
2.746390079E1,1.144433498E0,1.532351971E-1,-1.362317085E0,1.785809872E0
2.748246199E1,1.489286661E0,3.084144592E-1,-1.158719063E0,1.911994797E0
2.750102324E1,1.491139174E0,3.820638061E-1,-1.254691124E0,1.985879806E0
2.751958444E1,1.124752998E0,2.865206599E-1,-1.156796455E0,1.638701143E0
2.753814569E1,8.016005158E-1,2.249429822E-1,-7.532911301E-1,1.122769014E0
2.755670689E1,4.570427835E-1,2.729533911E-1,-1.665210724E-1,5.577821503E-1
2.757526814E1,2.872603536E-1,2.012819648E-1,2.908744812E-1,4.556763148E-1
2.759382934E1,3.357507586E-1,-8.314919472E-2,6.589145660E-1,7.441846316E-1
2.761239058E1,8.870627880E-1,-5.514038801E-1,1.252541542E0,1.630885325E0
2.763098689E1,1.032993317E0,-3.823046088E-1,2.660782814E0,2.879756446E0
2.764951303E1,1.148812294E0,-4.186585844E-1,3.425654411E0,3.637327706E0
2.766816626E1,7.662733197E-1,-5.372136235E-1,2.866117477E0,3.015029465E0
2.768663548E1,8.931767941E-2,-2.595245838E-1,2.168463707E0,2.185764284E0
2.770519668E1,3.904199004E-1,-3.430358768E-1,2.660407066E0,2.710694942E0
2.772375793E1,1.226362348E0,-6.145214438E-1,3.765609741E0,4.007669889E0
2.774231913E1,1.168537140E0,-7.643203735E-1,2.990226746E0,3.300169794E0
2.776088038E1,3.295958042E-1,-6.202723384E-1,6.527996063E-1,9.589152694E-1
2.777944157E1,-1.978338361E-1,-4.680492580E-1,-1.262962341E0,1.361353081E0
2.779798991E1,-2.067166865E-1,-2.857513428E-1,-2.145877838E0,2.174667173E0
2.781656402E1,1.834388375E-1,9.371161461E-2,-1.086537361E0,1.105891094E0
2.783512527E1,4.855697155E-1,2.281828523E-1,2.850236893E-1,6.075227289E-1
2.785368647E1,3.935447335E-1,5.820930004E-2,1.065464973E0,1.137313233E0
2.787229564E1,-4.214621782E-1,-7.999524474E-2,1.179957390E0,1.255519434E0
2.789080892E1,-1.167227149E0,-2.149699479E-1,6.123065948E-2,1.188436153E0
2.790937314E1,-1.465766430E0,9.411951900E-2,-8.332691193E-1,1.688687992E0
2.792793137E1,-1.255786896E0,3.530522287E-1,-1.354016304E0,1.880161364E0
2.794649262E1,-9.269596338E-1,5.145065784E-1,-1.244426727E0,1.634799395E0
2.796505381E1,-8.706924915E-1,5.246545076E-1,-7.475080490E-1,1.261798736E0
2.798361506E1,-7.969112396E-1,2.744411528E-1,-6.255235672E-1,1.049602402E0
2.800217626E1,-8.089332581E-1,1.276233792E-2,-9.228048325E-1,1.227234555E0
2.802073751E1,-8.321243525E-1,-9.743198752E-2,-1.435561180E0,1.662155177E0
2.803929871E1,-8.029718995E-1,-1.615434289E-1,-1.856544971E0,2.029191805E0
2.805785996E1,-6.555438042E-1,-1.765857935E-1,-2.036437035E0,2.146624331E0
2.807642116E1,-4.722231030E-1,-2.491201758E-1,-1.831889629E0,1.908107737E0
2.809498241E1,-5.406848192E-1,-2.301810980E-1,-1.429962158E0,1.545999737E0
2.811354360E1,-9.258934855E-1,-2.814851403E-1,-6.246356964E-1,1.151816992E0
2.813210480E1,-1.224313855E0,-4.486625791E-1,-3.703031540E-1,1.355495095E0
2.815071522E1,-1.520985126E0,-3.556854129E-1,-2.533197403E-1,1.582428121E0
2.816922725E1,-1.563248873E0,-3.119403124E-1,-1.415395737E-1,1.600339729E0
2.818785308E1,-1.273936272E0,-1.849118471E-1,1.127061844E-1,1.292210780E0
2.820634970E1,-1.108396888E0,-2.675199509E-2,3.724260330E-1,1.169598427E0
2.822491095E1,-7.799018025E-1,6.333619356E-2,8.456287384E-1,1.152105142E0
2.824347215E1,-2.258709371E-1,4.702270031E-3,1.555379868E0,1.571701729E0
2.826203340E1,3.660068512E-1,3.275752068E-2,2.538462639E0,2.564922346E0
2.828059460E1,5.361008048E-1,4.210418463E-2,3.353466988E0,3.396309419E0
2.829915584E1,6.111158729E-1,7.928878069E-2,3.070843697E0,3.132064867E0
2.831771704E1,2.573179603E-1,4.167773128E-1,2.123444557E0,2.179204591E0
2.833627829E1,5.168042183E-1,1.352249384E-1,1.474741936E0,1.568513998E0
2.835483949E1,1.319511056E0,-3.924382329E-1,1.836788177E0,2.295410204E0
2.837340069E1,1.043044090E0,-7.330912352E-2,3.294251442E0,3.456212922E0
2.839196194E1,4.290956855E-1,-1.525074244E-2,3.561183929E0,3.586974585E0
2.841051022E1,3.821778297E-1,3.842604160E-2,1.813831329E0,1.854055162E0
2.842916314E1,6.486866474E-1,3.913277984E-1,4.312686920E-1,8.717364837E-1
2.844764558E1,1.427678347E0,7.178290486E-1,-1.576108932E-1,1.605735096E0
2.846620684E1,1.946415663E0,7.345278859E-1,-2.633552551E-1,2.097002894E0
2.848476803E1,1.509356618E0,5.086138844E-1,-3.317890167E-1,1.626938670E0
2.850332928E1,7.229610682E-1,4.445919991E-1,-9.429206848E-1,1.268634766E0
2.852189048E1,9.361475706E-2,6.316496134E-1,-1.416178703E0,1.553482242E0
2.854045173E1,9.182530642E-2,5.978242755E-1,-1.935481071E0,2.027785178E0
2.855901293E1,2.983371615E-1,6.739301085E-1,-2.152525425E0,2.275203850E0
2.857757413E1,6.963044405E-1,7.316083312E-1,-2.069265366E0,2.302596312E0
2.859613538E1,1.013800025E0,6.356197000E-1,-1.849344730E0,2.202698079E0
2.861469657E1,1.205272675E0,4.382625222E-1,-1.950704575E0,2.334524490E0
2.863325782E1,7.173951268E-1,3.622478843E-1,-2.083721638E0,2.233332748E0
2.865181902E1,7.244020700E-2,2.863888741E-1,-1.987374783E0,2.009209968E0
2.867038350E1,-1.097446084E-1,2.199330330E-1,-1.903002262E0,1.918810055E0
2.868894147E1,-3.898942471E-2,2.887890935E-1,-1.834493160E0,1.857494137E0
2.870759475E1,3.246762156E-1,3.984470367E-1,-1.616256714E0,1.696013105E0
2.872606392E1,8.617653251E-1,3.246792555E-1,-1.351462364E0,1.635391885E0
2.874462512E1,1.132780075E0,3.183264732E-1,-1.269425392E0,1.730885111E0
2.876318637E1,8.121971488E-1,2.917382717E-1,-1.763186455E0,1.963059322E0
2.878174756E1,2.576369941E-1,2.670180798E-1,-1.942922592E0,1.978035307E0
2.880030881E1,1.998298168E-1,1.704187989E-1,-1.480382919E0,1.503498623E0
2.881887001E1,4.067187309E-1,2.127674818E-1,-7.794513702E-1,9.045631907E-1
2.883743126E1,7.241674662E-1,2.756925821E-1,-1.089725494E-1,7.824959651E-1
2.885599246E1,1.119203687E0,1.240981817E-1,3.192310333E-1,1.170438253E0
2.887455366E1,9.289957881E-1,-1.090228558E-2,1.906671524E-1,9.484228999E-1
2.889311491E1,6.917152405E-1,-7.902431488E-2,4.137792587E-1,8.098938765E-1
2.891167610E1,4.817972481E-1,-2.479174137E-1,6.285457611E-1,8.298562563E-1
2.893023736E1,5.475389957E-1,-5.637394190E-1,8.729791641E-1,1.174603638E0
2.894880184E1,1.057280540E0,-8.613539338E-1,1.829203606E0,2.281613151E0
2.896734684E1,1.171407580E0,-9.532114267E-1,2.917492867E0,3.285205073E0
2.898592100E1,1.002795696E0,-1.237495661E0,3.555835724E0,3.896275454E0
2.900448220E1,4.244287014E-1,-1.419790268E0,3.409443855E0,3.717559889E0
2.902304345E1,-1.737453341E-1,-1.332244515E0,2.869318008E0,3.168287980E0
2.904160465E1,-4.614579678E-2,-1.098121762E0,2.375632286E0,2.617561766E0
2.906016590E1,2.901501656E-1,-7.966082692E-1,1.835497856E0,2.021836846E0
2.907872710E1,4.552555084E-1,-6.347436309E-1,1.579591751E0,1.762176823E0
2.909728835E1,7.189961672E-1,-8.798701167E-1,1.774168968E0,2.106846563E0
2.911584954E1,6.484592557E-1,-1.114938021E0,1.839303970E0,2.246469517E0
2.913441074E1,-2.983981371E-2,-9.631057382E-1,1.134410858E0,1.488405547E0
2.915297199E1,-4.747506976E-1,-7.626137733E-1,-2.957935333E-1,9.457599096E-1
2.917153319E1,-5.598049164E-1,-5.589673519E-1,-1.380039215E0,1.590702449E0
2.919018694E1,-5.135846734E-1,-3.407163620E-1,-2.102471828E0,2.190946062E0
2.920865564E1,-1.511829495E-1,-1.471195221E-1,-1.939802170E0,1.951238811E0
2.922721684E1,3.612449765E-2,1.534384489E-2,-1.650002480E0,1.650469205E0
2.924577808E1,1.815058589E-1,-1.671471000E-1,-1.701917648E0,1.719711084E0
2.926433928E1,-1.415356696E-1,-2.267555594E-1,-1.532964706E0,1.556094862E0
2.928290053E1,-5.701792240E-1,-7.709890604E-2,-1.186152458E0,1.318334648E0
2.930146173E1,-5.886012316E-1,-5.974149704E-2,-9.101772308E-1,1.085561167E0
2.932002293E1,-5.459281206E-1,2.091193199E-2,-7.947025299E-1,9.643790400E-1
2.933858418E1,-4.072970748E-1,4.302865267E-2,-8.730735779E-1,9.643649955E-1
2.935714538E1,-3.754709363E-1,9.104669094E-2,-1.012952805E0,1.084131592E0
2.937570663E1,-2.902859747E-1,8.478254080E-2,-1.235761642E0,1.272226734E0
2.939426782E1,-3.457872570E-1,1.171274185E-1,-1.472499847E0,1.517083867E0
2.941282902E1,-6.321561337E-1,1.716246605E-1,-1.606199265E0,1.734633240E0
2.943143803E1,-7.833096385E-1,1.241058111E-1,-1.430632591E0,1.635752381E0
2.944995147E1,-8.930507302E-1,8.035570383E-2,-9.369115829E-1,1.296842304E0
2.946851272E1,-9.840400815E-1,1.254189014E-2,-2.743444443E-1,1.021644290E0
2.948707392E1,-1.055014968E0,-1.065743566E-1,3.337430954E-1,1.111665026E0
2.950563512E1,-1.114050388E0,-2.029248476E-1,4.579315186E-1,1.221469622E0
2.952419637E1,-1.103492022E0,-2.420019507E-1,1.665811539E-1,1.141932076E0
2.954275756E1,-9.410294294E-1,-1.117267013E-1,-3.000068665E-2,9.481135396E-1
2.956131881E1,-6.801117659E-1,-9.602290392E-2,-9.058952332E-2,6.928050764E-1
2.957988001E1,-5.869575739E-1,-9.058761597E-2,-8.364105225E-2,5.997675678E-1
2.959844121E1,-6.320024729E-1,-9.774571657E-2,5.183973312E-1,8.232357766E-1
2.961700246E1,-6.651395559E-1,-1.999318600E-1,6.799030304E-1,9.719318434E-1
2.963556366E1,-3.595704138E-1,-3.913837671E-1,1.051498413E0,1.178185490E0
2.965412491E1,-5.386507511E-2,-4.322002530E-1,1.690382957E0,1.745592463E0
2.967268610E1,8.222806454E-2,-5.108588934E-1,2.403395653E0,2.458464750E0
2.969124730E1,-2.345329225E-1,-5.183352828E-1,3.041038513E0,3.093799023E0
2.970982652E1,-5.091766119E-1,-2.401202917E-1,2.848659515E0,2.903752677E0
2.972836975E1,-1.131035089E-1,-4.060274363E-2,2.489973068E0,2.492871209E0
2.974691803E1,9.717177153E-1,-3.530976474E-1,2.567100525E0,2.767475090E0
2.976549220E1,1.516808152E0,-3.822843730E-1,3.080987930E0,3.455334273E0
2.978405340E1,8.475582600E-1,-3.765008450E-1,2.972501755E0,3.113819933E0
2.980260173E1,-6.292051077E-2,-3.647531271E-1,1.568192482E0,1.611282562E0
2.982117585E1,-4.946138561E-1,-1.177451015E-1,4.042806625E-1,6.495765002E-1
2.983973704E1,5.324065685E-3,1.163267493E-1,-3.303585052E-1,3.502813159E-1
2.985829829E1,8.916010857E-1,3.278160095E-1,-5.150156021E-1,1.080581743E0
2.987685949E1,1.734029651E0,5.022220612E-1,2.355670929E-1,1.820598166E0
2.989542074E1,1.811795592E0,3.724654913E-1,9.550991058E-1,2.081717587E0
2.991398194E1,1.122392416E0,1.232604384E-1,5.345649719E-1,1.249286829E0
2.993254314E1,4.520759583E-1,6.721818447E-2,-7.044372559E-1,8.397159066E-1
2.995110439E1,3.785597086E-1,2.306238413E-1,-1.444140434E0,1.510641057E0
2.996966558E1,6.628730893E-1,3.364703059E-1,-1.472125053E0,1.649171056E0
2.998822678E1,1.029994488E0,3.216571808E-1,-1.329808235E0,1.712525016E0
