"Time (s)","Linear Acceleration x (m/s^2)","Linear Acceleration y (m/s^2)","Linear Acceleration z (m/s^2)","Absolute acceleration (m/s^2)"
1.370035310E-1,3.348779678E-1,4.104173183E-2,-1.793575287E-1,3.820952763E-1
1.555638960E-1,3.489594460E-1,3.849244118E-2,2.449703217E-2,3.519296343E-1
1.741242610E-1,5.453625917E-1,7.853937149E-2,7.027626038E-3,5.510337348E-1
1.926846250E-1,4.401084185E-1,2.106125951E-1,4.686355591E-3,4.879293465E-1
2.112449900E-1,2.522304058E-1,2.048073411E-1,7.992553711E-2,3.345957502E-1
2.298053540E-1,3.430786133E-1,1.011582613E-1,-3.089523315E-2,3.590131532E-1
2.483657190E-1,2.395299673E-1,1.076998115E-1,-5.391120911E-3,2.626840665E-1
2.669260310E-1,1.956931353E-1,7.156610489E-2,2.300815582E-1,3.104110726E-1
2.855043130E-1,6.190741062E-2,1.003187299E-1,2.279548645E-1,2.566316335E-1
3.040467610E-1,1.721051931E-1,8.512401581E-2,2.582197189E-1,3.217820983E-1
3.226100420E-1,2.268700600E-1,2.189615965E-1,3.348083496E-1,4.599030722E-1
3.411674900E-1,4.571169615E-1,2.714048028E-1,5.050563812E-2,5.340105832E-1
3.597278540E-1,5.079021454E-1,2.585961819E-1,-7.657718658E-2,5.750657702E-1
3.782882190E-1,3.817119598E-1,2.627925873E-1,-1.141271591E-1,4.772724302E-1
3.968485830E-1,3.392672539E-1,2.089317441E-1,3.262414932E-1,5.149643241E-1
4.154089480E-1,2.253593206E-1,1.590383053E-1,4.123916626E-1,4.961319273E-1
4.339692610E-1,2.898651361E-1,1.512909532E-1,2.303133011E-1,3.999437039E-1
4.525296250E-1,2.558676004E-1,1.180400848E-1,2.135276794E-2,2.825909257E-1
4.710899900E-1,9.127902985E-2,1.061317325E-1,-8.932781219E-2,1.660580138E-1
4.896503540E-1,1.155165434E-1,8.813965321E-2,-2.298660278E-1,2.719394437E-1
5.082107190E-1,1.228593588E-1,1.576090455E-1,-2.569961548E-1,3.255488548E-1
5.267710830E-1,2.956296206E-1,2.537316680E-1,-7.954597473E-3,3.896664054E-1
5.453314480E-1,3.602839112E-1,3.259209394E-1,1.586103439E-1,5.110637892E-1
5.638949900E-1,2.584041357E-1,3.100699186E-1,8.458518982E-2,4.123962974E-1
5.824521250E-1,3.839397430E-2,2.735437155E-1,-8.523464203E-2,2.890764704E-1
6.010905630E-1,-5.161142349E-2,2.922419906E-1,-9.941291809E-2,3.129729195E-1
6.195728540E-1,-3.177082539E-2,2.897815704E-1,-1.884212494E-1,3.471099410E-1
6.381332190E-1,6.598198414E-2,4.049304128E-1,-4.413700104E-1,6.026024788E-1
6.566935830E-1,-7.316946983E-2,5.525212884E-1,-4.345588684E-1,7.067354212E-1
6.752539480E-1,-2.188793421E-1,6.801683307E-1,-2.365770340E-1,7.526658073E-1
6.938143130E-1,-2.451432943E-1,7.213089466E-1,-5.985260010E-2,7.641754805E-1
7.123746250E-1,-2.760815620E-1,7.608379126E-1,-3.328456879E-1,8.751466220E-1
7.309349900E-1,-2.929788828E-1,7.431281209E-1,-5.416803360E-1,9.651391694E-1
7.494953540E-1,-2.666646242E-1,7.348883748E-1,-5.636615753E-1,9.637869665E-1
7.680557190E-1,-2.715259790E-1,8.522168994E-1,-3.766126633E-1,9.704829205E-1
7.866160830E-1,-2.916588783E-1,7.783246636E-1,-3.258581161E-1,8.927696765E-1
8.051764480E-1,-3.528575897E-1,8.244943619E-1,-1.811847687E-1,9.149466388E-1
8.237368130E-1,-1.742427349E-1,8.825851679E-1,-2.643585205E-1,9.376580062E-1
8.423002500E-1,4.580998421E-2,8.822106719E-1,-4.729681015E-1,1.002044435E0
8.608574900E-1,-1.098263264E-2,9.693975449E-1,-3.199014664E-1,1.020876666E0
8.794178540E-1,-9.199893475E-2,1.004349828E0,-1.532888412E-1,1.020137172E0
8.979782190E-1,-7.465147972E-2,9.900202155E-1,-1.159524918E-1,9.995788368E-1
9.165385830E-1,-6.921184063E-2,9.957852960E-1,-2.269725800E-1,1.023667518E0
9.350989480E-1,-2.892434597E-2,1.124161482E0,-2.208757401E-1,1.146019960E0
9.536593130E-1,1.387434602E-1,1.206631541E0,-1.508045197E-1,1.223908259E0
9.722196770E-1,1.949244142E-1,1.252083898E0,-1.794891357E-1,1.279814816E0
9.907799900E-1,1.064867973E-1,1.183500051E0,-9.459114075E-2,1.192039972E0
1.009340354E0,-3.548789024E-2,1.162373543E0,-9.193420410E-4,1.162915512E0
1.027900719E0,-3.418278694E-2,1.163015127E0,4.922676086E-2,1.164558252E0
1.046461083E0,1.745863557E-1,1.206205726E0,3.643131256E-2,1.219319437E0
1.065021448E0,3.119196892E-1,1.281606674E0,7.455825806E-3,1.319039480E0
1.083585042E0,4.153714180E-1,1.196649313E0,1.246452332E-2,1.266751103E0
1.102142125E0,3.369396925E-1,1.047112107E0,-8.495330811E-3,1.100020133E0
1.120702490E0,2.894176245E-1,9.460617304E-1,2.000017166E-1,1.009354272E0
1.139262854E0,3.236161470E-1,8.092910051E-1,2.804613113E-1,9.156079340E-1
1.157823219E0,4.022161961E-1,8.068788648E-1,2.105112076E-1,9.258219803E-1
1.176383583E0,3.806738853E-1,8.618022799E-1,8.549690247E-3,9.421724226E-1
1.194943948E0,2.523466945E-1,8.171048760E-1,-1.197547913E-1,8.635279050E-1
1.213504313E0,1.817575693E-1,7.337012291E-1,1.485004425E-1,7.703282995E-1
1.232064625E0,1.973933578E-1,5.191521645E-1,1.998910904E-1,5.902876888E-1
1.250624990E0,9.783977270E-2,2.734038830E-1,5.927057266E-1,6.600169564E-1
1.269185354E0,-3.895390034E-2,1.255198717E-1,8.107204437E-1,8.213040134E-1
1.287745719E0,-1.289098263E-1,1.266075373E-1,9.559593201E-1,9.728851080E-1
1.306306083E0,-5.450488329E-1,-4.829645157E-2,6.369056702E-1,8.396782778E-1
1.324866448E0,-8.485405445E-1,8.186513186E-2,3.435831070E-1,9.191149585E-1
1.343426813E0,-8.414161801E-1,3.615333438E-1,3.475580215E-1,9.795326055E-1
1.361990094E0,-1.344321966E-1,2.148517668E-1,5.106630325E-1,5.700965094E-1
1.380547490E0,4.077678621E-1,-2.720283568E-1,6.003026962E-1,7.750079892E-1
1.399107854E0,4.311565161E-1,-6.201550961E-1,8.188419342E-1,1.113997486E0
1.417668219E0,-2.103659511E-2,-8.755982518E-1,4.021806717E-1,9.637759748E-1
1.436228583E0,-6.194311380E-2,-9.562235475E-1,1.442604065E-1,9.690260507E-1
1.454788948E0,-2.759639919E-1,-2.477093786E-1,-7.858133316E-1,8.689180935E-1
1.473349261E0,-1.711817086E-1,1.543680131E-1,-1.288465500E0,1.308921696E0
1.491909625E0,-6.556412578E-2,1.457818747E-1,-1.002527237E0,1.015190559E0
1.510469990E0,-2.148653865E-1,3.302335739E-2,-6.149291992E-1,6.522235786E-1
1.529030354E0,-1.975718141E-1,-2.868987918E-1,-1.206836700E-1,3.686598522E-1
1.547590719E0,-5.760877952E-2,-4.796387553E-1,-1.072731018E-1,4.948531352E-1
1.566151031E0,6.224754453E-2,-4.879575968E-1,-2.685060501E-1,5.604220481E-1
1.584711396E0,-3.261477649E-1,6.123319268E-2,-8.258152008E-1,8.899958507E-1
1.603320563E0,-4.171664417E-1,1.801750064E-1,-8.200521469E-1,9.375374108E-1
1.621832125E0,-4.320785999E-1,3.270158768E-1,-9.459733963E-1,1.090182080E0
1.640392490E0,-3.939786553E-1,3.235622048E-1,-8.775424957E-1,1.014885468E0
1.658952854E0,-4.134881496E-1,2.334941030E-1,-8.595113754E-1,9.819632124E-1
1.677513219E0,-5.818905234E-1,1.247748137E-1,-7.484073639E-1,9.561793334E-1
1.696073583E0,-6.759014130E-1,1.777940989E-1,-7.625074387E-1,1.034345714E0
1.714633896E0,-6.786710024E-1,2.478028536E-1,-6.480188370E-1,9.705302658E-1
1.733194261E0,-5.858191848E-1,2.532626390E-1,-2.777328491E-1,6.960327701E-1
1.751754625E0,-6.147251129E-1,2.630888820E-1,9.441757202E-2,6.752906057E-1
1.770314990E0,-6.948221922E-1,2.906845212E-1,2.977256775E-1,8.098863801E-1
1.788875354E0,-7.505111098E-1,2.894453406E-1,2.974491119E-1,8.576255042E-1
1.807435667E0,-6.778637171E-1,2.029357553E-1,3.363227844E-1,7.834507994E-1
1.825996031E0,-7.758942246E-1,1.309189200E-1,3.960494995E-1,8.809124914E-1
1.844604104E0,-7.624241710E-1,1.007543206E-1,4.366836548E-1,8.843837764E-1
1.863116761E0,-6.583858132E-1,2.046866417E-1,4.489669800E-1,8.227635441E-1
1.881677125E0,-4.937701523E-1,2.887391448E-1,5.329942703E-1,7.818325583E-1
1.900237490E0,-4.805387259E-1,2.767534256E-1,7.215337753E-1,9.100114914E-1
1.918797802E0,-6.301558018E-1,2.509688139E-1,7.071218491E-1,9.798484523E-1
1.937358167E0,-6.402793527E-1,1.596840620E-1,6.878480911E-1,9.532007373E-1
1.955918531E0,-5.365959406E-1,2.173602581E-2,6.092510223E-1,8.121542135E-1
1.974478896E0,-3.475832939E-1,2.837079763E-2,6.142969131E-1,7.063849842E-1
1.993039261E0,-1.165836379E-1,-1.193517447E-2,1.000216484E0,1.007058691E0
2.011599625E0,8.156867325E-2,-1.480552554E-1,1.455425262E0,1.465208689E0
2.030159938E0,2.339110225E-1,-1.843918860E-1,1.857471466E0,1.881200410E0
2.048720302E0,3.100829720E-1,-2.585021257E-1,1.713507652E0,1.760421334E0
2.067280667E0,2.915974557E-1,-2.485748231E-1,7.406787872E-1,8.339206106E-1
2.085828115E0,2.115860879E-1,-5.689820647E-2,-5.718488693E-1,6.123864857E-1
2.104401396E0,3.526616991E-1,-3.870797157E-2,-1.183780670E0,1.235801463E0
2.122991813E0,4.288290441E-1,-7.703706622E-2,-8.434066772E-1,9.492965195E-1
2.141522073E0,5.018390417E-1,-1.096568108E-1,-1.387939453E-1,5.321003657E-1
2.160082438E0,7.035220265E-1,-2.488607764E-1,-2.696609497E-2,7.467275930E-1
2.178642802E0,8.542519212E-1,-2.873649895E-1,-3.055982590E-1,9.516907470E-1
2.197203167E0,8.697549105E-1,-2.308801711E-1,-7.791576385E-1,1.190321756E0
2.215763531E0,7.295675278E-1,-2.316733897E-1,-9.929332733E-1,1.253737541E0
2.234323844E0,3.933071792E-1,-1.660537720E-1,-9.379777908E-1,1.030566217E0
2.252884208E0,2.436696589E-1,-1.279035211E-1,-8.595151901E-1,9.024968562E-1
2.271444573E0,2.412231565E-1,1.075130701E-2,-9.374494553E-1,9.680473558E-1
2.290004938E0,3.293548822E-1,1.420509219E-1,-1.091718674E0,1.149131309E0
2.308565302E0,4.358886182E-1,2.731366158E-1,-1.211322784E0,1.316018764E0
2.327125615E0,5.309041142E-1,3.414694667E-1,-1.224324226E0,1.377472463E0
2.345685979E0,7.231349945E-1,4.123278260E-1,-1.153531075E0,1.422523250E0
2.364264573E0,8.686302900E-1,5.599175096E-1,-9.570608139E-1,1.408542367E0
2.382806708E0,8.533751965E-1,5.422708988E-1,-8.982200623E-1,1.352444540E0
2.401367073E0,6.929199696E-1,4.586832523E-1,-7.698698044E-1,1.132796507E0
2.419927438E0,4.726550579E-1,4.095433354E-1,-5.131635666E-1,8.089903544E-1
2.438487750E0,3.486969471E-1,3.893719316E-1,-2.675991058E-1,5.872046862E-1
2.457048115E0,2.504913807E-1,4.727177024E-1,-5.150032043E-2,5.374571992E-1
2.475608479E0,2.470652759E-1,5.672897696E-1,-5.722808838E-2,6.213968035E-1
2.494168844E0,3.116970956E-1,5.790476203E-1,-2.619743347E-3,6.576154568E-1
2.512729208E0,3.074527681E-1,6.346017122E-1,1.241264343E-1,7.159985401E-1
2.531289521E0,4.219114184E-1,6.969409585E-1,1.823024750E-1,8.348473735E-1
2.549849886E0,5.053487420E-1,6.635937691E-1,2.545652390E-1,8.720880129E-1
2.568410250E0,3.873568773E-1,5.545551181E-1,6.352205276E-1,9.279449597E-1
2.586970615E0,2.999471426E-1,3.737240434E-1,1.033627510E0,1.139308465E0
2.605578688E0,1.145105362E-1,3.010871410E-1,1.286875725E0,1.326580288E0
2.624091344E0,-9.684681892E-2,2.908471823E-1,1.092463493E0,1.134657602E0
2.642683479E0,-2.433415055E-1,3.481671810E-1,5.210399628E-1,6.722485530E-1
2.661212021E0,-2.365086079E-1,4.583875537E-1,2.622051239E-1,5.786250928E-1
2.679772386E0,-1.923620701E-3,4.459406137E-1,5.151166916E-1,6.813310042E-1
2.698332750E0,2.942447066E-1,1.578330994E-2,1.415162086E0,1.445514715E0
2.716893063E0,2.564914823E-1,-5.513652563E-1,2.234761238E0,2.316020146E0
2.735453427E0,-4.782631993E-2,-8.725763559E-1,2.253798485E0,2.417288660E0
2.754013792E0,-4.151833057E-1,-8.012049794E-1,1.195395470E0,1.497757299E0
2.772574156E0,-2.689720392E-1,-6.545154452E-1,-2.234916687E-1,7.420814995E-1
2.791134521E0,-1.718024015E-1,-5.540570617E-1,-8.511772156E-1,1.030047545E0
2.809694886E0,-3.129473329E-1,-6.921569109E-1,-3.245372772E-1,8.260397489E-1
2.828255198E0,-5.507411957E-1,-9.673721790E-1,4.020929337E-1,1.183555459E0
2.846815563E0,-5.635633469E-1,-1.317416430E0,6.539802551E-1,1.575080909E0
2.865375927E0,-3.583485484E-1,-1.483069777E0,4.155740738E-1,1.581332178E0
2.883985406E0,-1.217988133E-2,-1.397135496E0,-1.768560410E-1,1.408337319E0
2.902496656E0,2.470303774E-1,-1.167537451E0,-8.169345856E-1,1.446219148E0
2.921121188E0,2.401648164E-1,-9.132317305E-1,-1.162145615E0,1.497415695E0
2.939617333E0,6.538262963E-2,-7.053840756E-1,-1.292588234E0,1.473983014E0
2.958177698E0,5.191335082E-2,-6.746272445E-1,-1.156183243E0,1.339618082E0
2.976738063E0,4.097610712E-3,-6.473619938E-1,-1.066269875E0,1.247407627E0
2.995298427E0,-9.235960245E-2,-6.513674259E-1,-1.353488922E0,1.504906004E0
3.013858740E0,-1.454455853E-1,-6.034150720E-1,-1.583117485E0,1.700448511E0
3.032419104E0,-3.218251467E-1,-3.721336126E-1,-1.400804520E0,1.484691265E0
3.050979469E0,-3.136550784E-1,-2.309352756E-1,-1.070077896E0,1.138761307E0
3.069539833E0,-2.609341145E-1,-1.795377731E-1,-7.865772247E-1,8.479529200E-1
3.088100198E0,-2.609218657E-1,-1.468551755E-1,-5.005807877E-1,5.832904830E-1
3.106660511E0,-3.620870113E-1,1.071935892E-2,-2.515602112E-2,3.631180715E-1
3.125268583E0,-4.686813354E-1,2.321394086E-1,3.791370392E-1,6.459843603E-1
3.143781240E0,-4.249472320E-1,4.155545235E-1,4.974212646E-1,7.750442739E-1
3.162344677E0,-3.705411553E-1,4.910200238E-1,2.531013489E-1,6.651779494E-1
3.180901969E0,-3.295643926E-1,5.604130626E-1,1.448793411E-1,6.660822119E-1
3.199462281E0,-3.241906166E-1,7.003176808E-1,3.172540665E-1,8.343827375E-1
3.218022646E0,-2.442172170E-1,7.578971982E-1,6.853914261E-1,1.050624395E0
3.236583011E0,-2.206588387E-1,7.013940811E-1,7.703475952E-1,1.064931640E0
3.255143375E0,-3.226780295E-1,6.949777603E-1,3.553619385E-1,8.446285014E-1
3.273703740E0,-3.317761719E-1,5.534653664E-1,-3.442573547E-2,6.462077617E-1
3.292264052E0,-3.159686029E-1,4.546473026E-1,2.626419067E-2,5.542834433E-1
3.310824417E0,-3.340204358E-1,3.632614017E-1,6.065177917E-1,7.819158070E-1
3.329384781E0,-3.739878237E-1,2.897388935E-1,1.011740685E0,1.116886177E0
3.347945146E0,-2.479659915E-1,2.169085145E-1,6.267318726E-1,7.080460979E-1
3.366505511E0,5.595819652E-2,5.546367168E-2,2.620935440E-1,2.736796749E-1
3.385065823E0,3.839370012E-1,-9.007340670E-2,4.207830429E-1,5.766968083E-1
3.403629261E0,2.965652347E-1,-2.717441320E-1,9.382667542E-1,1.020852738E0
3.422186552E0,7.044464350E-2,-5.276353359E-1,1.424385071E0,1.520603277E0
3.440746917E0,-5.995560437E-2,-6.859120131E-1,1.521597862E0,1.670128743E0
3.459307281E0,-1.516076028E-1,-6.206948161E-1,1.082092285E0,1.256650561E0
3.477867594E0,-1.360864639E-1,-5.504739881E-1,2.316722870E-1,6.125464764E-1
3.496427958E0,-6.298400462E-2,-5.186947584E-1,-4.046955109E-1,6.609006686E-1
3.514988323E0,9.511871636E-2,-5.936287045E-1,-4.087886810E-1,7.270149894E-1
3.533548688E0,1.891509891E-1,-6.687649488E-1,-2.341794968E-1,7.333925894E-1
3.552109000E0,2.621524334E-1,-7.453485727E-1,-2.082509995E-1,8.170904919E-1
3.570669365E0,3.730069995E-1,-6.909534931E-1,-3.309240341E-1,8.520925230E-1
3.589229729E0,5.565355420E-1,-5.594084263E-1,-3.995456696E-1,8.844808302E-1
3.607790094E0,6.376423836E-1,-5.249161720E-1,-3.923492432E-1,9.143646568E-1
3.626350458E0,3.484734297E-1,-5.496390462E-1,-3.451910019E-1,7.366774329E-1
3.644958792E0,-3.027483821E-3,-6.547452807E-1,-3.484878540E-1,7.417171514E-1
3.663471136E0,-1.978385299E-1,-7.095243931E-1,-5.522928238E-1,9.206477673E-1
3.682031500E0,-9.667423368E-2,-5.780904293E-1,-7.051439285E-1,9.169309744E-1
3.700591865E0,7.787075639E-2,-4.266316295E-1,-8.589220047E-1,9.621982187E-1
3.719152229E0,1.387550086E-1,-3.949164748E-1,-8.975458145E-1,9.903537063E-1
3.737712542E0,1.871987134E-1,-3.507429361E-1,-6.852130890E-1,7.922000649E-1
3.756272906E0,3.079907894E-1,-1.886375546E-1,-3.294687271E-1,4.888681781E-1
3.774833271E0,6.281495094E-1,-1.484267712E-1,-2.470340729E-1,6.911064648E-1
3.793393636E0,5.775291920E-1,-2.200536728E-1,-2.022590637E-1,6.502863334E-1
3.811953948E0,3.638559580E-1,-3.025236130E-1,-8.130931854E-2,4.801280036E-1
3.830514313E0,3.449072242E-1,-2.813711762E-1,-1.819381714E-1,4.808661252E-1
3.849074677E0,5.076009631E-1,-8.193898201E-2,-5.364704132E-1,7.430836015E-1
3.867635042E0,5.934488773E-1,9.414196014E-3,-6.247949600E-1,8.617650139E-1
3.886195406E0,4.959737062E-1,6.447875500E-2,-5.663795471E-1,7.556012298E-1
3.904755719E0,3.332895041E-1,9.502905607E-2,-3.895683289E-1,5.214172013E-1
3.923319104E0,2.642346323E-1,7.162779570E-2,-3.700256348E-1,4.602927898E-1
3.941876448E0,2.751171589E-1,1.059761047E-1,-5.069618225E-1,5.864560302E-1
3.960436813E0,4.287230074E-1,2.349110842E-1,-5.410785675E-1,7.292137209E-1
3.978997177E0,5.853803158E-1,3.870275617E-1,-3.274621964E-1,7.743977903E-1
3.997557490E0,4.936766624E-1,4.127441645E-1,2.025127411E-2,6.438047114E-1
4.016117854E0,3.627230227E-1,3.204773068E-1,3.736753464E-1,6.114793209E-1
4.034678219E0,3.227469027E-1,2.791771293E-1,6.502294540E-1,7.777556015E-1
4.053238583E0,3.244336247E-1,2.960486412E-1,5.982704163E-1,7.421788637E-1
4.071798896E0,4.617164135E-1,3.518543243E-1,2.283430099E-1,6.237980781E-1
4.090359261E0,4.009349942E-1,5.017824769E-1,4.158020020E-4,6.422886396E-1
4.108919625E0,2.312860638E-1,6.476887465E-1,6.577396393E-2,6.908836153E-1
4.127479990E0,9.226374328E-2,6.353960633E-1,2.110099792E-1,6.758446323E-1
4.146040302E0,1.220510751E-1,4.273008704E-1,6.839551926E-1,8.156452686E-1
4.164600667E0,2.918317914E-1,1.367998123E-2,1.480371475E0,1.508924332E0
4.183161031E0,2.419426739E-1,-3.500777483E-1,2.502211571E0,2.538139758E0
4.201812073E0,4.778438061E-2,-7.072745562E-1,2.653200150E0,2.746268683E0
4.220281708E0,-6.433161348E-2,-8.419889212E-1,1.616914749E0,1.824142869E0
4.238842073E0,-1.789654642E-1,-6.458469629E-1,2.404127121E-1,7.120008491E-1
4.257389521E0,-2.105168104E-1,-3.574539423E-1,-9.491872787E-1,1.035879886E0
4.275962802E0,-3.967173696E-1,-2.334908247E-1,-1.332636833E0,1.409901970E0
4.294523167E0,-6.256322861E-1,-3.707857430E-1,-1.006981850E0,1.242139392E0
4.313083479E0,-8.674560189E-1,-6.830001473E-1,-4.866638184E-1,1.206569856E0
4.331643844E0,-8.803421259E-1,-1.020882130E0,-1.596651077E-1,1.357459218E0
4.350204208E0,-8.021944761E-1,-1.206783772E0,-1.190776825E-1,1.453967862E0
4.368764573E0,-5.455834270E-1,-1.394399881E0,-4.515047073E-1,1.563927366E0
4.387324886E0,-4.956899881E-1,-1.223801017E0,-7.308025360E-1,1.509128835E0
4.405885250E0,-5.333482623E-1,-1.025729895E0,-6.261129379E-1,1.314762183E0
4.424445615E0,-6.412947774E-1,-8.242030740E-1,-4.664564133E-1,1.143744414E0
4.443005979E0,-6.584994793E-1,-6.882954836E-1,-2.384243011E-1,9.819462227E-1
4.461566292E0,-7.242316008E-1,-6.441044807E-1,-2.394199371E-1,9.983505897E-1
4.480126656E0,-8.532919884E-1,-7.514280081E-1,-4.855289459E-1,1.236321004E0
4.498687021E0,-9.499236345E-1,-8.375315666E-1,-4.975147247E-1,1.360637695E0
4.517247386E0,-9.615389109E-1,-8.650377393E-1,-4.763975143E-1,1.378333036E0
4.535807698E0,-8.433521390E-1,-8.341478705E-1,-4.826326370E-1,1.280616946E0
4.554368063E0,-6.197221279E-1,-6.895895600E-1,-2.491016388E-1,9.600213037E-1
4.572928427E0,-5.287616849E-1,-5.064153671E-1,1.073379517E-1,7.399776208E-1
4.591488792E0,-5.456556082E-1,-4.069473743E-1,2.515249252E-1,7.256796788E-1
4.610049104E0,-6.269059777E-1,-3.067012131E-1,1.375503540E-1,7.113345478E-1
4.628609469E0,-6.141611338E-1,-2.359455228E-1,-1.588726044E-2,6.581159419E-1
4.647169833E0,-6.110695601E-1,-1.283633709E-1,4.767704010E-2,6.262238117E-1
4.665730198E0,-5.271450281E-1,5.449938774E-2,1.960496902E-1,5.650553468E-1
4.684338271E0,-3.576185703E-1,2.365560532E-1,4.231529236E-1,6.024186293E-1
4.702850875E0,-2.057836205E-1,4.048021436E-1,6.438312531E-1,7.878644276E-1
4.721414365E0,-1.021483094E-1,4.259340167E-1,6.338930130E-1,7.705027032E-1
4.739971604E0,-2.929701209E-1,5.204387307E-1,4.980974197E-1,7.776818139E-1
4.758531969E0,-5.836920738E-1,5.324540138E-1,1.126146317E-1,7.980512322E-1
4.777092281E0,-7.360919714E-1,5.176167488E-1,-1.795539856E-1,9.176045568E-1
4.795652646E0,-6.588500738E-1,5.538988709E-1,4.484367371E-2,8.619155029E-1
4.814213011E0,-5.443953276E-1,5.119156837E-1,4.757537842E-1,8.858699696E-1
4.832773375E0,-7.242393494E-1,5.715566874E-1,9.951877594E-1,1.357055031E0
4.851333688E0,-5.566970110E-1,7.090021968E-1,1.168741226E0,1.475991779E0
4.869894052E0,-3.035269380E-1,8.711960316E-1,8.009157181E-1,1.221710733E0
4.888454417E0,-9.684036672E-2,8.534999490E-1,1.639738083E-1,8.744870664E-1
4.907014781E0,-2.710452080E-1,5.383037329E-1,-1.763114929E-1,6.279507593E-1
4.925623063E0,-8.417230248E-1,5.125943422E-1,4.712324142E-1,1.092387568E0
4.944135458E0,-9.125639796E-1,2.830580473E-1,1.398329735E0,1.693582275E0
4.962698792E0,-8.248413205E-1,2.997139990E-1,2.209795952E0,2.377685815E0
4.981256188E0,-5.304906368E-1,4.082360864E-2,2.247648239E0,2.309763947E0
4.999816500E0,-2.450694144E-1,-3.066707551E-1,1.673491478E0,1.718918176E0
5.018376865E0,-4.304682463E-2,-5.437830687E-1,1.509813309E0,1.605331518E0
5.036937229E0,1.937360615E-1,-8.364174366E-1,1.908107758E0,2.092367799E0
5.055497594E0,3.077313304E-1,-1.043496490E0,2.707453728E0,2.917856950E0
5.074057906E0,3.952886462E-1,-1.239572525E0,3.319588661E0,3.565453974E0
5.092618271E0,2.544550002E-1,-1.183300734E0,2.982621193E0,3.218847178E0
5.111178636E0,2.402551472E-1,-1.095766783E0,1.529414177E0,1.896716927E0
5.129739000E0,4.650603533E-1,-1.025375724E0,-6.004428864E-2,1.127511341E0
5.148286396E0,7.624689937E-1,-1.006873608E0,-7.733659744E-1,1.480961971E0
5.166859677E0,7.923137546E-1,-1.099383950E0,-4.936094284E-1,1.442240071E0
5.185420042E0,7.616332769E-1,-1.394428253E0,-1.174516678E-1,1.593207550E0
5.204028115E0,5.553734303E-1,-1.566395044E0,9.365081787E-3,1.661962932E0
5.222540719E0,6.169943213E-1,-1.600338101E0,-3.884439468E-1,1.758593964E0
5.241193167E0,6.774874926E-1,-1.450324774E0,-9.634046555E-1,1.868309338E0
5.259661448E0,6.931011677E-1,-1.222251773E0,-1.252528191E0,1.882316523E0
5.278221813E0,6.320394278E-1,-1.007893205E0,-1.355642319E0,1.803632071E0
5.296782125E0,4.136136174E-1,-8.896135092E-1,-1.026921272E0,1.420230868E0
5.315342490E0,2.803943753E-1,-9.555335045E-1,-7.455844879E-1,1.244010254E0
5.333902854E0,1.649242789E-1,-9.245122671E-1,-6.141719818E-1,1.122109697E0
5.352463219E0,2.761873901E-1,-8.185892105E-1,-8.743104935E-1,1.229140598E0
5.371023531E0,4.845133424E-1,-5.704596043E-1,-1.305939674E0,1.505209544E0
5.389583896E0,6.960955262E-1,-2.681133449E-1,-1.654829979E0,1.815184841E0
5.408144261E0,7.192252874E-1,2.261281013E-2,-1.782923698E0,1.922657865E0
5.426704625E0,7.195789814E-1,1.554166079E-1,-1.655100822E0,1.811437817E0
5.445264938E0,6.709886789E-1,1.286919713E-1,-1.593271255E0,1.733580320E0
5.463825302E0,6.099609733E-1,8.336639404E-2,-1.595378876E0,1.710039795E0
5.482388948E0,6.419920325E-1,1.165719032E-1,-1.744769096E0,1.862783395E0
5.500945979E0,7.033655643E-1,7.373774052E-2,-2.013634205E0,2.134217206E0
5.519506344E0,7.171081305E-1,7.536727190E-2,-1.996658802E0,2.122868500E0
5.538066708E0,6.056211591E-1,1.319564581E-1,-1.342591286E0,1.478763286E0
5.556627073E0,6.001058817E-1,8.187341690E-2,-5.765218735E-1,8.361864602E-1
5.575187386E0,5.566264987E-1,1.214753985E-1,-1.630401611E-2,5.699606587E-1
5.593747750E0,5.675746202E-1,1.778184772E-1,2.133970261E-1,6.319008238E-1
5.612308115E0,5.664087534E-1,1.982762814E-1,-1.500883102E-1,6.185942616E-1
5.630868479E0,5.066657066E-1,2.694258690E-1,-5.247716904E-1,7.776154346E-1
5.649428792E0,4.391636848E-1,4.106839895E-1,-7.521915436E-2,6.059570963E-1
5.667989156E0,3.682042360E-1,3.503630757E-1,6.017875671E-1,7.877035738E-1
5.686549521E0,-5.938898027E-2,2.247975469E-1,7.259864807E-1,7.623105392E-1
5.705109833E0,-2.815710008E-1,2.227827311E-1,3.682899475E-1,5.143460500E-1
5.723673479E0,9.103229642E-2,3.998662829E-1,1.219053268E-1,4.278327149E-1
5.742230563E0,6.032670736E-1,5.077413917E-1,9.212779999E-2,7.938639773E-1
5.760883167E0,6.847863197E-1,4.276634455E-1,3.731718063E-1,8.894298867E-1
5.779351240E0,5.616605282E-1,1.600144506E-1,9.084367752E-1,1.079965068E0
5.797911604E0,3.294593692E-1,-7.295662165E-2,1.803158760E0,1.834461136E0
5.816471969E0,1.163629889E-1,-1.938361228E-1,2.672836304E0,2.682380788E0
5.835032333E0,3.104636073E-2,-2.821610570E-1,2.840913773E0,2.855060385E0
5.853592646E0,4.101336002E-2,-2.718501091E-1,2.807144165E0,2.820574931E0
5.872153011E0,4.439452291E-2,-3.553690314E-1,2.608192444E0,2.632665160E0
5.890713375E0,-1.499307752E-1,-4.789015949E-1,1.909975052E0,1.974798895E0
5.909273740E0,-3.184303641E-1,-5.737797022E-1,1.262581825E0,1.422931449E0
5.927834052E0,-8.373549581E-2,-5.542081594E-1,1.288933754E0,1.405527851E0
5.946394417E0,3.197728097E-1,-4.686438441E-1,1.732521057E0,1.823049894E0
5.965002750E0,4.915225804E-1,-1.988921463E-1,1.835760117E0,1.910802904E0
5.983515094E0,1.588101685E-1,-1.635899544E-1,9.832191467E-1,1.009307799E0
6.002082542E0,-4.800443947E-1,-4.477711916E-1,-6.437091827E-1,9.194037051E-1
6.020635823E0,-9.407206774E-1,-6.837756634E-1,-1.769343376E0,2.117328631E0
6.039196136E0,-1.096095562E0,-8.711493611E-1,-1.860573292E0,2.328531654E0
6.057756500E0,-9.549038410E-1,-9.151276946E-1,-1.252682686E0,1.821678883E0
6.076316865E0,-6.112611294E-1,-7.601497769E-1,-9.293088913E-1,1.347250113E0
6.094877229E0,-1.772531569E-1,-5.828475952E-1,-7.515573502E-1,9.674546250E-1
6.113437542E0,6.410068274E-2,-5.002063513E-1,-7.158975601E-1,8.756852220E-1
6.131997906E0,-4.037138820E-2,-4.626560211E-1,-7.424039841E-1,8.756963620E-1
6.150558271E0,-3.775072694E-1,-3.489033878E-1,-6.762266159E-1,8.494278948E-1
6.169118636E0,-4.814479947E-1,-4.085864723E-1,-7.936067581E-1,1.014172946E0
6.187678948E0,-3.610446751E-1,-3.643204868E-1,-7.920341492E-1,9.436104959E-1
6.206239313E0,-1.586444676E-1,-3.793844879E-1,-6.249780655E-1,7.481298277E-1
6.224799677E0,-2.082064003E-1,-3.178484440E-1,-4.128952026E-1,5.611238605E-1
6.243363219E0,-2.207107097E-1,-2.682709098E-1,-6.223134995E-1,7.127107338E-1
6.261920354E0,-2.334477156E-1,-1.471299529E-1,-1.032786369E0,1.069014847E0
6.280480719E0,-2.457187772E-1,-6.278795004E-2,-1.504797935E0,1.526019944E0
6.299041031E0,-2.957702875E-1,5.802547932E-2,-1.773252010E0,1.798685551E0
6.317601396E0,-2.031974494E-1,1.806948185E-1,-1.624757767E0,1.647354735E0
6.336161761E0,-1.799342334E-1,1.934027076E-1,-9.206905365E-1,9.578371467E-1
6.354722125E0,-4.270533919E-1,5.811560154E-2,-5.864124298E-1,7.277578997E-1
6.373282438E0,-6.723216772E-1,-3.870362043E-2,-8.951559067E-1,1.120186817E0
6.391842802E0,-7.608958483E-1,1.470506191E-2,-1.162014961E0,1.389049136E0
6.410403167E0,-6.482777596E-1,3.846216202E-2,-1.179896355E0,1.346810603E0
6.428963531E0,-5.847401619E-1,1.195609570E-1,-1.037096024E0,1.196571787E0
6.447523844E0,-6.264647245E-1,1.590739489E-1,-9.118499756E-1,1.117690901E0
6.466084208E0,-7.375848293E-1,1.682158113E-1,-6.482706070E-1,9.962844571E-1
6.484662490E0,-7.583813667E-1,2.368122339E-1,-3.430404663E-1,8.653895614E-1
6.503204886E0,-6.575204134E-1,3.313923478E-1,-1.071453094E-1,7.440659242E-1
6.521768427E0,-5.662153959E-1,3.939942718E-1,2.164287567E-1,7.229611106E-1
6.540325615E0,-5.707557201E-1,3.780121803E-1,5.344762802E-1,8.685160877E-1
6.558885979E0,-5.865945220E-1,2.827073932E-1,7.683601379E-1,1.007171239E0
6.577446292E0,-6.319183111E-1,1.925799251E-1,1.125483513E0,1.305036749E0
6.596006656E0,-5.369552374E-1,1.128184199E-1,1.527929306E0,1.623458311E0
6.614567021E0,-3.470873237E-1,1.061276197E-1,1.847302437E0,1.882620242E0
6.633127333E0,3.778529912E-2,6.844377518E-2,2.038795471E0,2.040293913E0
6.651687698E0,4.402185678E-1,-1.009061933E-1,2.292000771E0,2.336074053E0
6.670248063E0,7.526900768E-1,-3.210880458E-1,2.115120888E0,2.267901289E0
6.688808375E0,8.312571049E-1,-5.926228762E-1,1.912719727E0,2.168106778E0
6.707368740E0,7.678052187E-1,-6.412013769E-1,2.725547791E0,2.903321343E0
6.725929104E0,8.307984471E-1,-4.556137323E-1,3.721562386E0,3.840291203E0
6.744489417E0,1.029017568E0,-4.666602612E-1,3.519328117E0,3.696257479E0
6.763053011E0,1.056476235E0,-6.922166348E-1,2.993790627E0,3.249321194E0
6.781610146E0,7.569373250E-1,-8.482059240E-1,2.751379967E0,2.976994982E0
6.800170511E0,2.174562812E-1,-6.769667864E-1,2.148685455E0,2.263276486E0
6.818717906E0,4.967784882E-2,-4.770151079E-1,5.274772644E-1,7.129120326E-1
6.837291188E0,2.226497531E-1,-3.329850435E-1,-9.014234543E-1,9.864158331E-1
6.856235354E0,5.624967217E-1,-1.477846503E-1,-1.002067566E0,1.158612218E0
6.875166761E0,5.910358429E-1,-2.138072252E-1,-6.298427582E-1,8.897970539E-1
6.894098219E0,3.576130867E-1,-4.676423073E-1,-9.071578979E-1,1.081439734E0
6.913029573E0,6.392252445E-2,-6.840959787E-1,-1.456894875E0,1.610781200E0
6.931961083E0,3.697508574E-2,-8.182687163E-1,-1.935558796E0,2.101741826E0
6.950892490E0,-9.940624237E-3,-8.327114582E-1,-1.957164288E0,2.126969496E0
6.969823844E0,3.956687450E-2,-6.617242098E-1,-1.552430153E0,1.688041423E0
6.988755250E0,-1.657009125E-4,-5.394300818E-1,-1.241350174E0,1.353489969E0
7.007686656E0,-3.128027916E-1,-5.527101159E-1,-1.144321442E0,1.308741999E0
7.026618011E0,-5.552666187E-1,-6.137451530E-1,-1.233160973E0,1.485156596E0
7.045549417E0,-5.599554777E-1,-6.200604439E-1,-1.458063126E0,1.680468140E0
7.064480823E0,-3.993429542E-1,-4.876656830E-1,-1.616966248E0,1.735474707E0
7.083215823E0,-2.861741781E-1,-3.117721677E-1,-1.761489391E0,1.811613209E0
7.101776136E0,-1.693409681E-1,-5.337494612E-2,-1.814320087E0,1.822987281E0
7.120336500E0,6.549704075E-2,1.251311898E-1,-1.849933147E0,1.855316773E0
7.138896865E0,2.647860050E-1,1.230576634E-1,-1.807919502E0,1.831345883E0
7.157457177E0,2.083742619E-1,8.269947767E-2,-1.653410912E0,1.668540284E0
7.176017542E0,8.663654327E-3,-4.644459486E-2,-1.564099312E0,1.564812710E0
7.194577906E0,-9.217810631E-2,-4.181319475E-2,-1.547833443E0,1.551139424E0
7.213138219E0,4.180663824E-2,1.199265718E-1,-1.366768837E0,1.372656997E0
7.231698583E0,2.514071465E-1,3.035096526E-1,-9.914941788E-1,1.066950968E0
7.250258948E0,3.888064027E-1,5.010203123E-1,-4.713859558E-1,7.901876305E-1
7.268819261E0,3.627479076E-1,5.698460937E-1,-1.232843399E-1,6.866655980E-1
7.287379625E0,1.188136935E-1,5.241326690E-1,-1.955518723E-1,5.719023371E-1
7.305939990E0,-3.376412392E-2,5.421506763E-1,-2.286863327E-1,5.893766288E-1
7.324549417E0,-5.887740850E-2,5.829626918E-1,1.519775391E-2,5.861254311E-1
7.343060667E0,-6.321257353E-2,6.777203083E-1,2.598485947E-1,7.285752795E-1
7.361713479E0,-4.428440332E-2,7.397788167E-1,6.164312363E-1,9.639612415E-1
7.380181344E0,-8.770227432E-2,7.211031914E-1,1.063512802E0,1.287921186E0
7.398741708E0,-1.576076746E-1,6.467279792E-1,1.303613663E0,1.463730112E0
7.417302073E0,-1.190365553E-1,5.218960643E-1,1.522839546E0,1.614182606E0
7.435862386E0,2.656579018E-2,4.318217039E-1,1.539539337E0,1.599173879E0
7.454422750E0,1.269302964E-1,3.304248452E-1,1.462506294E0,1.504731384E0
7.472983115E0,-3.712487221E-2,3.560873270E-1,1.564541817E0,1.604982099E0
7.491543427E0,-1.536437869E-1,1.689670086E-1,1.872809410E0,1.886682631E0
7.510103792E0,-2.479329109E-1,-1.873071790E-1,2.086033821E0,2.109049978E0
7.528664156E0,-4.494080245E-1,-4.013319910E-1,2.158335686E0,2.240858735E0
7.547224521E0,-3.690710366E-1,-5.775811076E-1,2.178115845E0,2.283418928E0
7.565832802E0,-1.134756207E-1,-6.812589765E-1,1.941718102E0,2.060888084E0
7.584345198E0,3.903025389E-2,-7.168611288E-1,1.262581825E0,1.452420774E0
7.602908636E0,-4.565048218E-2,-6.838786006E-1,8.816204071E-1,1.116704280E0
7.621465875E0,9.610652924E-4,-7.350167632E-1,9.268913269E-1,1.182953126E0
7.640026240E0,-9.350395203E-2,-5.876480937E-1,8.598537445E-1,1.045668080E0
7.658586552E0,-1.448026299E-1,-3.445052505E-1,3.667211533E-1,5.235800545E-1
7.677146917E0,-2.915935516E-1,-3.337087333E-1,-3.822689056E-1,5.852502322E-1
7.695707281E0,-5.268902779E-1,-5.900081992E-1,-7.848606110E-1,1.114329044E0
7.714267646E0,-5.643638372E-1,-8.877122402E-1,-7.488613129E-1,1.291252426E0
7.732827958E0,-6.274361014E-1,-1.084817886E0,-7.928953171E-1,1.482966248E0
7.751388323E0,-5.602824092E-1,-1.016500473E0,-1.105766296E0,1.603093476E0
7.769948636E0,-2.035699189E-1,-8.277204037E-1,-1.133998871E0,1.418631459E0
7.788509000E0,-2.043247223E-3,-4.759086668E-1,-9.135017395E-1,1.030038185E0
7.807069365E0,1.170594096E-1,-2.806607485E-1,-8.438653946E-1,8.969850419E-1
7.825629729E0,-1.291217804E-1,-1.524879336E-1,-7.838115692E-1,8.088792123E-1
7.844190042E0,-4.038943350E-1,-2.363408208E-1,-6.678018570E-1,8.154427863E-1
7.862796031E0,-5.571601391E-1,-3.262214661E-1,-3.862237930E-1,7.523408030E-1
7.881310719E0,-5.285930037E-1,-3.795400858E-1,-4.087696075E-1,7.684750044E-1
7.899886865E0,-4.499017000E-1,-2.974116802E-1,-4.159126282E-1,6.810642859E-1
7.918431448E0,-3.282321990E-1,-9.567362070E-2,-5.338954926E-1,6.339828192E-1
7.936991761E0,-2.117284387E-1,4.419398308E-2,-7.369832993E-1,7.680666789E-1
7.955552125E0,-2.142693400E-1,6.185835600E-2,-8.078870773E-1,8.381046092E-1
7.974112490E0,-4.824351668E-1,-2.747094631E-2,-7.788276672E-1,9.165538055E-1
7.992672802E0,-6.990286112E-1,-1.505176425E-1,-7.608795166E-1,1.044142806E0
8.011233167E0,-6.803025007E-1,-1.958538294E-1,-8.504228592E-1,1.106521240E0
8.029793531E0,-5.308601856E-1,-1.851449013E-1,-9.069499969E-1,1.067075193E0
8.048353844E0,-3.465304375E-1,-1.166225076E-1,-8.211879730E-1,8.989070254E-1
8.066914208E0,-2.740771472E-1,-1.100493073E-1,-8.068780899E-1,8.592330212E-1
8.085474573E0,-3.176163733E-1,-1.552318931E-1,-6.924810410E-1,7.775005423E-1
8.104034886E0,-4.572123289E-1,-2.332363725E-1,-4.108619690E-1,6.574571292E-1
8.122595250E0,-4.402357936E-1,-2.944092155E-1,-3.913545609E-1,6.585155521E-1
8.141247854E0,-3.806794584E-1,-3.051719666E-1,-7.802228928E-1,9.202143998E-1
8.159715927E0,-3.725188673E-1,-2.211143970E-1,-6.163234711E-1,7.533369127E-1
8.178276292E0,-2.488525510E-1,-6.276857853E-2,-3.794670105E-3,2.566746698E-1
8.196836604E0,-1.707002074E-1,4.076325893E-2,4.667129517E-1,4.986192769E-1
8.215396969E0,-8.571434021E-2,1.305782795E-2,4.035816193E-1,4.127899931E-1
8.233957333E0,-9.337894619E-2,-5.856108665E-2,3.453693390E-1,3.625313901E-1
8.252517646E0,-1.164574549E-1,-2.029435039E-1,4.160394669E-1,4.773229960E-1
8.271078011E0,-9.148374200E-3,-2.655586004E-1,5.382471085E-1,6.002624532E-1
8.289638375E0,1.214520484E-1,-2.343965173E-1,1.015346527E0,1.049104808E0
8.308198688E0,2.264091969E-1,-2.459403276E-1,1.526859283E0,1.563024965E0
8.326759052E0,4.199219942E-1,-3.164137602E-1,1.676576614E0,1.757088869E0
8.345319417E0,5.484393239E-1,-4.167109728E-1,1.240129471E0,1.418574930E0
8.363879729E0,5.755656958E-1,-4.522538483E-1,7.627773285E-1,1.057184310E0
8.382486761E0,5.075855851E-1,-3.654751778E-1,6.131486893E-1,8.758804410E-1
8.401000458E0,4.900293648E-1,-3.646768034E-1,7.303142548E-1,9.520907835E-1
8.419560771E0,4.386872947E-1,-5.098644495E-1,1.085457802E0,1.276960038E0
8.438121136E0,4.635692835E-1,-7.648938894E-1,1.279959679E0,1.561491570E0
8.456681448E0,4.773926735E-1,-9.174977541E-1,1.293007851E0,1.655770273E0
8.475241813E0,4.497927427E-1,-9.563226700E-1,9.801073074E-1,1.441345515E0
8.493802177E0,2.632339597E-1,-8.349238634E-1,4.187097549E-1,9.704163200E-1
8.512362490E0,3.431718349E-1,-6.342036724E-1,-2.628936768E-1,7.675247825E-1
8.530922854E0,3.605723977E-1,-4.789788127E-1,-8.145599365E-1,1.011405481E0
8.549483219E0,2.598963678E-1,-4.238333702E-1,-9.462852478E-1,1.068941822E0
8.568043531E0,1.079526544E-1,-4.555624723E-1,-9.006862640E-1,1.015099349E0
8.586603896E0,1.718823016E-1,-5.090939403E-1,-8.953056335E-1,1.044170648E0
8.605164208E0,3.864841759E-1,-5.566909313E-1,-9.394588470E-1,1.158385832E0
8.623770146E0,5.377420783E-1,-4.980171919E-1,-9.280996323E-1,1.182605849E0
8.642284938E0,4.953163862E-1,-3.822575808E-1,-9.888000488E-1,1.170121668E0
8.660846708E0,3.385453820E-1,-2.322849333E-1,-1.023859978E0,1.103113104E0
8.679405615E0,2.026829720E-1,-1.317414492E-1,-7.274236679E-1,7.665385765E-1
8.697965979E0,3.104519844E-2,-1.021909416E-1,-3.256464005E-1,3.427132490E-1
8.716526292E0,-1.913101822E-1,-1.223434210E-1,-3.154659271E-1,3.886981472E-1
8.735086656E0,-3.060538471E-1,-1.101909578E-1,-5.095090866E-1,6.044919469E-1
8.753646969E0,-3.345434666E-1,7.588356733E-3,-6.664733887E-1,7.457638312E-1
8.772207333E0,-2.106087357E-1,1.208052933E-1,-5.255374908E-1,5.789124396E-1
8.790767698E0,-1.383837014E-1,2.877450585E-1,-2.586936951E-1,4.109375809E-1
8.809328011E0,-1.294953376E-1,3.524598479E-1,-2.678184509E-1,4.612198061E-1
8.827888375E0,-2.704849541E-1,4.515197277E-1,-4.223842621E-1,6.748634230E-1
8.846448740E0,-2.497726977E-1,3.944534063E-1,-6.244878769E-1,7.797211031E-1
8.865009052E0,-3.034369349E-1,3.396258950E-1,-9.265584946E-1,1.032439037E0
8.883569417E0,-2.576172054E-1,3.326191902E-1,-1.236174583E0,1.305806169E0
8.902176448E0,-1.796847135E-1,4.713735878E-1,-1.368782997E0,1.458782557E0
8.920690094E0,-9.349992871E-2,5.761415958E-1,-1.218818665E0,1.351369791E0
8.939250458E0,-1.549779624E-1,5.863767266E-1,-9.998264313E-1,1.169405288E0
8.957810771E0,-3.312149942E-1,6.469954848E-1,-1.005622864E0,1.240799691E0
8.976371136E0,-4.145936668E-1,7.209711075E-1,-1.621993065E0,1.822785985E0
8.994931448E0,-4.691524208E-1,8.434672356E-1,-2.120616436E0,2.329925973E0
9.013491813E0,-5.728262663E-1,8.891835213E-1,-2.098927498E0,2.350377397E0
9.032052177E0,-5.504789352E-1,8.723493814E-1,-1.453297615E0,1.782160054E0
9.050612490E0,-4.141912162E-1,8.026535511E-1,-5.478000641E-1,1.056357892E0
9.069172854E0,-3.477658629E-1,7.222027779E-1,1.676826477E-1,8.189233286E-1
9.087733219E0,-4.886712432E-1,7.305343151E-1,3.706617355E-1,9.538711085E-1
9.106293531E0,-5.332306623E-1,6.865883470E-1,2.166576385E-1,8.959235625E-1
9.124853896E0,-6.174999475E-1,7.158103585E-1,3.556966782E-1,1.010054841E0
9.143460979E0,-3.635553718E-1,8.849032521E-1,5.796480179E-1,1.118578606E0
9.161974573E0,-5.123808980E-1,1.102422476E0,8.585863113E-1,1.488301029E0
9.180536188E0,-5.685620904E-1,9.790228605E-1,1.496859550E0,1.876789047E0
9.199082333E0,-1.961522549E-1,9.996306300E-1,2.681699753E0,2.868667054E0
9.217655615E0,-1.151415706E-1,1.187814355E0,3.472685814E0,3.672016787E0
9.236215927E0,-1.020738125E0,9.126699567E-1,3.890577316E0,4.124495681E0
9.254776292E0,-1.378990173E0,7.245941162E-1,3.734242439E0,4.046136074E0
9.273336656E0,-1.321017742E0,7.309314013E-1,4.034219742E0,4.307467645E0
9.291896969E0,-1.209213853E0,1.117944837E0,3.259982109E0,3.652325581E0
9.310457333E0,-1.030838132E0,1.241279721E0,2.483409882E0,2.961541362E0
9.329017646E0,-6.131203175E-1,3.911660910E-1,4.028422356E0,4.093545421E0
9.347578011E0,-1.149101973E0,-2.958173752E-1,5.394280434E0,5.523242224E0
9.366125406E0,-2.082224369E0,-5.573037267E-1,3.274559021E0,3.920329393E0
9.384698688E0,-2.896604061E0,-4.385412633E-1,-2.569065094E-1,2.940856080E0
9.403259052E0,-3.393591881E0,-3.381806910E-1,-4.977836609E-1,3.446537481E0
9.421911917E0,-3.049030304E0,-3.473053873E-1,3.364643097E0,4.553902721E0
9.440379729E0,-1.569593668E0,-7.755389214E-1,7.234332085E0,7.443160996E0
9.458940042E0,2.953134477E-1,-9.228495359E-1,8.094822884E0,8.152608099E0
9.477500406E0,4.072786570E-1,-1.341217160E0,6.783439636E0,6.926744739E0
9.496060771E0,-1.720145047E-1,-1.700233459E0,5.384901047E0,5.649561230E0
9.514621083E0,-1.376846731E-1,-1.889831543E0,4.955284119E0,5.305210743E0
9.533181448E0,3.435639143E-1,-1.462052822E0,5.237405777E0,5.448490974E0
9.551741761E0,4.434833229E-1,-9.472750425E-1,3.267904282E0,3.431210553E0
9.570302125E0,8.632112741E-1,-8.704504967E-1,-8.407821655E-1,1.486516875E0
9.588849521E0,8.916275501E-1,-9.934944510E-1,-3.951274395E0,4.170683428E0
9.607422802E0,6.511201262E-1,-1.079271078E0,-4.945938110E0,5.104026574E0
9.625983167E0,7.778390646E-1,-8.706266880E-1,-3.849017143E0,4.022183165E0
9.644530563E0,-6.405698061E-1,-1.858049929E-1,-3.372977734E0,3.438289104E0
9.663103844E0,-1.266894102E0,4.145070910E-1,-4.150258541E0,4.359069024E0
9.681664156E0,-7.113367319E-1,-3.625476062E-1,-6.477944374E0,6.526959784E0
9.700317333E0,6.478552818E-1,-1.403639317E0,-8.467334747E0,8.607303731E0
9.719248792E0,1.443306506E-1,-1.943157911E0,-9.558444023E0,9.755026712E0
9.738226708E0,6.268482208E-1,-1.779085994E0,-8.574821472E0,8.779843333E0
9.757111604E0,6.146969795E-1,-2.078951597E0,-7.578468323E0,7.882453567E0
9.776043011E0,7.019337416E-1,-2.501259565E0,-5.242982388E0,5.851313930E0
9.794961188E0,5.015309453E-1,-2.182044506E0,-2.275839806E0,3.192537915E0
9.813905771E0,1.805236459E0,-2.098997831E0,-5.839529037E-1,2.829429547E0
9.832850406E0,2.280625820E0,-2.580814362E0,2.536764145E-1,3.453434323E0
9.851781761E0,2.056805611E0,-2.311573505E0,-1.299919128E0,3.356130381E0
9.870713167E0,1.243624210E0,-1.857893467E0,-1.154442787E0,2.516169203E0
9.889644521E0,5.291724801E-1,-1.377349257E0,2.287664413E-1,1.493133810E0
9.908562750E0,9.590826631E-1,-1.044025540E0,1.425312996E0,2.010309931E0
9.927507333E0,1.918559551E0,-8.726089001E-1,1.860107422E0,2.811105951E0
9.946149052E0,1.910805225E0,-4.227976799E-1,3.039236069E0,3.614815399E0
9.964696500E0,1.234688520E0,-2.932802439E-1,4.127529144E0,4.318213274E0
9.983315354E0,5.565667748E-1,-5.845916271E-1,3.867411613E0,3.950745061E0
1.000183009E1,2.383386046E-1,-7.754611969E-1,2.003147125E0,2.161190358E0
1.002037749E1,-2.242640853E-1,-6.106013656E-1,6.856060028E-2,6.540863578E-1
1.003895077E1,-6.847094297E-1,-4.470235109E-1,-1.040260315E0,1.323177443E0
1.005751114E1,-6.819737554E-1,-3.506571054E-2,-1.445758820E0,1.598917250E0
1.007607145E1,-2.672464550E-1,1.319479346E-1,-1.212863922E0,1.248947484E0
1.009463181E1,-5.194732547E-1,3.438901901E-1,-1.268513680E0,1.413237376E0
1.011319213E1,-9.997069240E-1,3.485120535E-1,-1.792632580E0,2.081923666E0
1.013175249E1,-1.543474197E0,2.112167478E-1,-1.868645668E0,2.432850539E0
1.015031280E1,-1.694919705E0,3.398187160E-1,-1.225222588E0,2.118820416E0
1.016887317E1,-1.354035735E0,5.535036325E-1,-8.186759949E-1,1.676308274E0
1.018743353E1,-8.572391272E-1,6.634967327E-1,-7.408027649E-1,1.312964421E0
1.020599384E1,-3.030249476E-2,5.767376423E-1,-7.704296112E-1,9.628636119E-1
1.022455421E1,3.333347738E-1,5.082638860E-1,-6.582632065E-1,8.959657908E-1
1.024311452E1,-6.721845269E-2,2.512732148E-1,-1.665649414E-1,3.088695980E-1
1.026167489E1,-5.864219666E-1,1.113291979E-1,2.241945267E-1,6.376112444E-1
1.028023520E1,-6.178796291E-1,9.941846132E-2,-2.372665405E-1,6.692941639E-1
1.029879556E1,-3.309861422E-1,3.351967335E-1,-5.815668106E-1,7.484174180E-1
1.031735588E1,1.085212231E-1,6.561246514E-1,-3.523921967E-1,7.526331605E-1
1.033591624E1,2.437111437E-1,8.330477476E-1,1.008682251E-1,8.738066549E-1
1.035447660E1,5.079323053E-2,8.043067455E-1,3.144521713E-1,8.650834996E-1
1.037303692E1,-7.512381673E-2,6.802687645E-1,2.598943710E-1,7.320889727E-1
1.039159728E1,2.028413117E-1,5.465015173E-1,1.249513626E-1,5.961722479E-1
1.041015759E1,4.471480250E-1,5.323671699E-1,6.657218933E-2,6.984182244E-1
1.042871796E1,5.940787196E-1,6.787652969E-1,3.922071457E-1,9.836047471E-1
1.044727827E1,6.000044346E-1,8.002541661E-1,8.269653320E-1,1.297799566E0
1.046583864E1,4.855917096E-1,7.618352175E-1,9.034090042E-1,1.277630634E0
1.048439895E1,1.368108839E-1,7.375477552E-1,9.364795685E-1,1.199869948E0
1.050300494E1,-2.531820238E-1,5.032206774E-1,1.011978149E0,1.158202039E0
1.052151968E1,-3.400236964E-1,3.353711963E-1,1.042237282E0,1.146450394E0
1.054007999E1,-1.325833797E-1,2.874150872E-1,1.252762794E0,1.292130181E0
1.055864035E1,1.110004634E-1,3.067218065E-1,1.251594543E0,1.293401821E0
1.057720067E1,2.838947177E-1,3.348033428E-1,7.745990753E-1,8.903332054E-1
1.059576103E1,3.008705974E-1,3.117932677E-1,5.273542404E-1,6.825252032E-1
1.061432134E1,4.321905673E-1,1.541674137E-2,7.789306641E-1,8.909317268E-1
1.063288171E1,6.778574586E-1,-3.562423885E-1,1.099678993E0,1.340034799E0
1.065144202E1,8.805831075E-1,-7.955951691E-1,1.211136818E0,1.695656414E0
1.067000239E1,5.405379534E-1,-9.584581852E-1,1.273540497E0,1.683071231E0
1.068856275E1,1.489095092E-1,-1.059402227E0,1.163950920E0,1.580913934E0
1.070712306E1,-1.915749013E-1,-1.033541441E0,1.055331230E0,1.489507589E0
1.072568343E1,-2.894248962E-1,-8.635445833E-1,7.480497360E-1,1.178581531E0
1.074428931E1,-2.297136188E-1,-4.630239010E-1,1.794681549E-1,5.471455914E-1
1.076280410E1,-1.683403999E-1,-2.252617329E-1,-3.210191727E-1,4.267723606E-1
1.078136608E1,-2.876276076E-1,-2.947590351E-1,-2.852039337E-1,5.009529052E-1
1.079992478E1,-4.207474887E-1,-5.403869152E-1,6.048583984E-2,6.875354567E-1
1.081848509E1,-4.867261648E-1,-7.195476294E-1,5.102949142E-1,1.007497916E0
1.083704546E1,-3.481868804E-1,-6.065745354E-1,1.279878616E-1,7.110187503E-1
1.085560577E1,-1.385226399E-1,-2.200205028E-1,-6.899375916E-1,7.373000906E-1
1.087416614E1,-8.381614089E-2,2.666745186E-1,-1.172996521E0,1.205844635E0
1.089272650E1,-7.093946636E-2,4.961748123E-1,-9.374027252E-1,1.062989051E0
1.091128681E1,-2.465292960E-1,3.795929253E-1,-2.239227295E-1,5.049840310E-1
1.092984718E1,-5.557638407E-1,8.417508006E-2,2.357349396E-1,6.095324868E-1
1.094840749E1,-9.870913029E-1,-1.720119417E-1,3.515968323E-1,1.061865190E0
1.096696785E1,-1.049046993E0,-2.710006237E-1,-2.448244095E-1,1.110801478E0
1.098552817E1,-9.188598990E-1,-5.923253298E-2,-1.144446373E0,1.468866743E0
1.100408853E1,-4.862501621E-1,3.088217080E-1,-1.395174026E0,1.509410690E0
1.102269447E1,-1.658642292E-1,5.329523087E-1,-1.081807137E0,1.217314991E0
1.104120921E1,-2.111814320E-1,4.789038301E-1,-4.647665024E-1,6.999674117E-1
1.105976952E1,-5.651012659E-1,1.785992682E-1,-4.892539978E-2,5.946686759E-1
1.107832989E1,-8.043465614E-1,-1.040587425E-1,-2.608804703E-1,8.519743145E-1
1.109689020E1,-8.508987427E-1,-1.712808609E-1,-8.414106369E-1,1.208858000E0
1.111545056E1,-5.545886159E-1,-3.813612461E-2,-1.456155777E0,1.558657289E0
1.113401088E1,-3.376653790E-1,2.442611456E-1,-1.437384605E0,1.496581411E0
1.115257124E1,-2.020047754E-1,3.367525339E-1,-1.010119438E0,1.083766339E0
1.117113155E1,-2.187481970E-1,2.436735630E-1,-4.719657898E-1,5.744382349E-1
1.118969192E1,-2.840649486E-1,1.815958619E-1,-1.486825943E-1,3.684785827E-1
1.120825223E1,-3.677806258E-1,1.654174924E-1,-2.352027893E-1,4.668467496E-1
1.122681259E1,-4.373624921E-1,1.238072515E-1,-4.084186554E-1,6.110809955E-1
1.124537296E1,-4.180734754E-1,7.098513842E-2,-5.657749176E-1,7.070541550E-1
1.126397884E1,-3.317780495E-1,2.787160873E-1,-4.857244492E-1,6.509128759E-1
1.128249358E1,4.849594831E-2,6.067233682E-1,-2.671241760E-1,6.646957408E-1
1.130105567E1,5.279771090E-1,7.392877340E-1,2.143077850E-1,9.333991686E-1
1.131961431E1,5.176888704E-1,7.525752187E-1,8.144836426E-1,1.223827941E0
1.133817462E1,4.026599228E-2,5.246242881E-1,1.007824898E0,1.136909415E0
1.135673499E1,-5.329729319E-1,1.488757730E-1,9.152297974E-1,1.069518454E0
1.137529530E1,-7.994090915E-1,-1.339384913E-1,1.179151535E0,1.430871328E0
1.139385567E1,-6.913455129E-1,-3.504728079E-1,1.401096344E0,1.601206037E0
1.141241598E1,-3.612051010E-1,-3.789388537E-1,1.280800819E0,1.383659828E0
1.143097634E1,1.150926277E-1,-7.777929306E-2,9.927721024E-1,1.002443205E0
1.144953666E1,2.424878776E-1,-3.491413593E-2,7.444114685E-1,7.836885875E-1
1.146809702E1,1.665493548E-1,-2.443661392E-1,1.027387619E0,1.069101874E0
1.148665733E1,1.147281080E-1,-4.406902194E-1,1.957555771E0,2.009824620E0
1.150521770E1,5.246137381E-1,-7.774279118E-1,2.558942795E0,2.725399413E0
1.152377801E1,4.090542197E-1,-8.024070859E-1,2.178977013E0,2.357779317E0
1.154233838E1,1.811874062E-1,-5.715849996E-1,8.445568085E-1,1.035767585E0
1.156089869E1,1.172174364E-1,-4.222692251E-1,-3.877220154E-1,5.851321108E-1
1.157945905E1,3.416958749E-1,-1.655290127E-1,-5.478353500E-1,6.665429437E-1
1.159801936E1,5.964422822E-1,-3.967669606E-2,2.181768417E-1,6.363322799E-1
1.161657973E1,7.027641535E-1,-1.709876060E-1,5.921087265E-1,9.347229327E-1
1.163514004E1,4.813409448E-1,-3.342366815E-1,1.960992813E-1,6.179467554E-1
1.165370041E1,3.000392318E-1,-3.856664896E-1,-7.004013062E-1,8.540047842E-1
1.167226072E1,2.140930742E-1,-2.730940282E-1,-1.467297554E0,1.507772630E0
1.169082108E1,3.036567271E-1,6.935834885E-3,-1.722885132E0,1.749453827E0
1.170938140E1,3.443070948E-1,1.825703382E-1,-1.562525749E0,1.610393126E0
1.172794176E1,2.176656276E-1,1.828378439E-1,-1.220832825E0,1.253491439E0
1.174650207E1,-7.870832086E-2,6.120073795E-2,-9.603805542E-1,9.655419923E-1
1.176506244E1,-1.337916255E-1,-7.075095177E-2,-9.995536804E-1,1.010946812E0
1.178366832E1,-6.059171259E-2,2.299928665E-2,-1.350866318E0,1.352420102E0
1.180218312E1,-1.580419391E-2,9.161168337E-2,-1.657293320E0,1.659898678E0
1.182078905E1,-1.954893768E-2,1.500868201E-1,-1.665465355E0,1.672328635E0
1.183930379E1,-1.389866918E-1,1.962503195E-1,-1.528978348E0,1.547774621E0
1.185786410E1,-2.322648019E-1,1.953536868E-1,-1.515511513E0,1.545601872E0
1.187642447E1,-2.764991224E-1,2.442059517E-1,-1.487283707E0,1.532351505E0
1.189498478E1,-1.795615107E-1,3.803339601E-1,-1.332514763E0,1.397315945E0
1.191354515E1,-1.033983678E-1,4.129824042E-1,-1.101332664E0,1.180753711E0
1.193210546E1,-2.002201378E-1,4.223459363E-1,-8.949947357E-1,1.009692909E0
1.195066582E1,-2.120624781E-1,4.164582491E-1,-6.370143890E-1,7.900603140E-1
1.196922614E1,-1.739123464E-1,4.429873228E-1,-3.792629242E-1,6.085422237E-1
1.198778650E1,-1.020327359E-1,4.766657948E-1,-1.321420670E-1,5.050569127E-1
1.200634681E1,-1.597477496E-1,5.068935752E-1,-6.600475311E-2,5.355530483E-1
1.202490718E1,-2.015963495E-1,4.560993314E-1,2.277374268E-3,4.986711087E-1
1.204346749E1,-1.410073340E-1,4.436684847E-1,1.241331100E-1,4.818026791E-1
1.206202785E1,-1.090412959E-1,3.838718534E-1,3.492164612E-1,5.302826989E-1
1.208058817E1,-1.339655817E-1,3.863820434E-1,8.153562546E-1,9.121642848E-1
1.209914853E1,-5.327779055E-2,4.112508893E-1,9.764680862E-1,1.060874988E0
1.211770884E1,-2.853497863E-3,4.383400679E-1,9.896564484E-1,1.082390892E0
1.213626921E1,-2.747029066E-4,3.855285048E-1,1.058019638E0,1.126071871E0
1.215482952E1,-6.319571286E-2,2.262155414E-1,1.126102448E0,1.150336425E0
1.217338989E1,-2.118352205E-1,2.024286985E-1,1.145330429E0,1.182215433E0
1.219195020E1,-1.578177065E-1,2.426716089E-1,1.210774422E0,1.244897843E0
1.221051056E1,-6.967173517E-2,1.876278520E-1,1.231489182E0,1.247647372E0
1.222907088E1,-4.612392187E-2,1.191416383E-1,9.994525909E-1,1.007585047E0
1.224763124E1,-4.913693666E-2,1.055650711E-1,8.631343842E-1,8.709531491E-1
1.226619155E1,-3.975813836E-2,-1.375477910E-1,7.478303909E-1,7.614134212E-1
1.228475192E1,-4.877892882E-2,-4.844052792E-1,1.145396233E0,1.244572372E0
1.230335900E1,-5.510163307E-2,-7.474606037E-1,2.051595688E0,2.184211164E0
1.232187254E1,3.064355254E-2,-1.073996544E0,2.520492554E0,2.739943488E0
1.234043431E1,-3.490146995E-2,-1.268363714E0,2.235927582E0,2.570863041E0
1.235899322E1,-2.022247761E-1,-1.164014339E0,1.431558609E0,1.856120765E0
1.237755358E1,-3.928396702E-1,-8.544607162E-1,1.446475983E-1,9.514983183E-1
1.239611390E1,-2.973922789E-1,-5.977734327E-1,-8.745317459E-1,1.100264068E0
1.241467426E1,2.578337491E-2,-4.330503643E-1,-7.967195511E-1,9.071711214E-1
1.243323457E1,1.778110862E-1,-3.342704773E-1,-5.420875549E-2,3.824815336E-1
1.245179494E1,2.593769431E-1,-4.723922312E-1,4.560852051E-2,5.408428199E-1
1.247035525E1,2.366878688E-1,-5.949771404E-1,-4.409980774E-1,7.774948547E-1
1.248891562E1,2.497044057E-1,-5.793215632E-1,-9.558963776E-1,1.145296315E0
1.250747593E1,2.231741548E-1,-5.387204885E-1,-9.050140381E-1,1.076604327E0
1.252603629E1,8.569306880E-2,-3.815605640E-1,-5.252323151E-1,6.548287951E-1
1.254459660E1,1.178681701E-1,-1.802409291E-1,-4.359788895E-1,4.862687427E-1
1.256315697E1,-3.621334955E-2,-1.059778333E-1,-3.378553391E-1,3.559338955E-1
1.258180947E1,-2.410685718E-1,-1.639854312E-1,-4.509992599E-1,5.370340868E-1
1.260027765E1,-3.359189332E-1,-2.757686973E-1,-8.832292557E-1,9.843697588E-1
1.261883796E1,-3.541144729E-1,-2.438461781E-1,-1.266318321E0,1.337318253E0
1.263739827E1,-3.342469633E-1,-1.713711023E-1,-1.368912697E0,1.419510852E0
1.265595864E1,-2.570798099E-1,-1.261365414E-2,-1.121158600E0,1.150324189E0
1.267451895E1,-2.528052330E-1,1.031534076E-1,-9.556217194E-1,9.938631605E-1
1.269307931E1,-4.005475044E-1,8.359062672E-2,-8.135051727E-1,9.106131793E-1
1.271163962E1,-5.300711989E-1,4.937112331E-2,-8.713588715E-1,1.021116676E0
1.273019999E1,-5.932716727E-1,-4.430419207E-2,-8.368129730E-1,1.026737596E0
1.274876030E1,-6.669845581E-1,-1.001182199E-1,-1.085000992E0,1.277544211E0
1.276732067E1,-6.031595469E-1,-7.690441608E-2,-1.263869286E0,1.402526755E0
1.278588098E1,-5.486145616E-1,3.809708357E-2,-9.601659775E-1,1.106502611E0
1.280444134E1,-4.052375555E-1,1.091718078E-1,-7.080698013E-1,8.231031549E-1
1.282300166E1,-3.210726976E-1,1.252752542E-1,-5.622777939E-1,6.594982062E-1
1.284156202E1,-4.986345768E-1,6.517022848E-2,-5.454673767E-1,7.419017852E-1
1.286012233E1,-5.743348002E-1,-3.073227406E-2,-4.847259521E-1,7.521729749E-1
1.287868270E1,-5.089406967E-1,4.059255123E-3,-4.289283752E-1,6.655949680E-1
1.289724301E1,-4.175718725E-1,1.626188159E-1,-4.218635559E-1,6.154510604E-1
1.291580332E1,-4.771355987E-1,3.212413192E-1,-1.660699844E-1,5.986932473E-1
1.293436369E1,-4.614279568E-1,3.408948183E-1,1.189174652E-1,5.858894094E-1
1.295292400E1,-4.528135359E-1,3.238896132E-1,3.582506180E-1,6.620332961E-1
1.297148436E1,-5.105266571E-1,3.220227957E-1,5.443677902E-1,8.128175931E-1
1.299004468E1,-5.604988337E-1,2.366734743E-1,5.626993179E-1,8.287362659E-1
1.300860504E1,-4.983286262E-1,2.344117165E-1,4.995594025E-1,7.435320229E-1
1.302716535E1,-3.266280293E-1,2.508742809E-1,6.743650436E-1,7.901847800E-1
1.304572572E1,-2.341725230E-1,2.653669119E-1,1.036638260E0,1.095388173E0
1.306428603E1,-1.728857756E-1,2.148502469E-1,1.245603561E0,1.275765790E0
1.308284634E1,-2.236335874E-1,1.686549783E-1,1.497496605E0,1.523467284E0
1.310140671E1,-1.439332068E-1,7.486683130E-2,1.478029251E0,1.486906950E0
1.311996702E1,-9.910961986E-2,3.666013479E-2,9.036798477E-1,9.098373203E-1
1.313852739E1,-1.366138458E-4,-3.854203224E-2,5.954074860E-1,5.966536527E-1
1.315708770E1,2.715289593E-2,-7.679647207E-2,8.186750412E-1,8.227173275E-1
1.317564806E1,1.304724813E-1,-7.349354029E-2,1.293389320E0,1.302029302E0
1.319420838E1,2.495054752E-1,-2.310101986E-1,1.436964035E0,1.476646312E0
1.321276874E1,1.945378780E-1,-4.356286824E-1,1.545340538E0,1.617310951E0
1.323132905E1,6.941737980E-2,-7.034963965E-1,1.883557320E0,2.011843465E0
1.324988942E1,8.910346776E-2,-7.434603572E-1,1.879534721E0,2.023196357E0
1.326844973E1,2.287399918E-1,-5.713456869E-1,1.130956650E0,1.287563910E0
1.328701004E1,3.878018558E-1,-2.765543163E-1,4.557323456E-2,4.784866654E-1
1.330557041E1,6.241147518E-1,-1.047978401E-1,-8.644351959E-1,1.071330957E0
1.332413072E1,5.889090300E-1,3.194475174E-2,-8.954524994E-1,1.072226418E0
1.334273666E1,5.038062334E-1,-1.856130362E-1,-5.725288391E-2,5.399544543E-1
1.336125140E1,3.109887838E-1,-4.289886057E-1,1.632900238E-1,5.544446586E-1
1.337981171E1,1.537271887E-1,-6.225805283E-1,-1.363992691E-1,6.556243767E-1
1.339837207E1,7.755115628E-2,-6.884916425E-1,-8.307428360E-1,1.081743307E0
1.341693239E1,-1.810777187E-2,-5.821936131E-1,-9.865217209E-1,1.145644971E0
1.343549275E1,2.162881792E-1,-4.110981226E-1,-7.767066956E-1,9.050168693E-1
1.345405306E1,3.074450195E-1,-1.271145344E-1,-7.471551895E-1,8.178761655E-1
1.347261343E1,2.256932110E-1,1.096546650E-2,-7.420701981E-1,7.757098979E-1
1.349117374E1,4.278716445E-2,-3.608345985E-2,-8.618354797E-1,8.636510590E-1
1.350973405E1,3.073486686E-2,-6.462275982E-2,-1.045199394E0,1.047646174E0
1.352829442E1,-3.448568285E-2,-1.191047430E-1,-9.783105850E-1,9.861373144E-1
1.354685473E1,-4.943433404E-2,-1.412980556E-1,-7.890491486E-1,8.031235601E-1
1.356541509E1,-4.388734698E-2,-2.921932936E-2,-7.262506485E-1,7.281619826E-1
1.358402239E1,1.124741435E-1,1.409101486E-2,-8.819751740E-1,8.892295525E-1
1.360253577E1,1.125978380E-1,1.612458825E-1,-1.168284416E0,1.184722324E0
1.362118640E1,2.463470101E-1,2.385407090E-1,-1.508331299E0,1.546819908E0
1.363965645E1,1.828043312E-1,3.252477050E-1,-1.501567841E0,1.547226381E0
1.365821676E1,1.493416429E-1,3.681602478E-1,-1.109801292E0,1.178772159E0
1.367677707E1,1.433688998E-1,3.774053454E-1,-8.130445480E-1,9.077614628E-1
1.369533744E1,1.127419770E-1,3.827499151E-1,-8.585510254E-1,9.467407851E-1
1.371389775E1,6.352685392E-2,4.197494984E-1,-9.151163101E-1,1.008792924E0
1.373245812E1,1.154859364E-1,3.712494373E-1,-9.378166199E-1,1.015215819E0
1.375101843E1,1.787289679E-1,4.182848930E-1,-8.336391449E-1,9.496633717E-1
1.376957879E1,1.916566640E-1,4.860975742E-1,-5.603685379E-1,7.661827633E-1
1.378813910E1,1.155150235E-1,5.429586172E-1,-3.275709152E-1,6.445544858E-1
1.380669942E1,6.152684987E-2,5.280792713E-1,-2.780456543E-1,5.999688791E-1
1.382525978E1,-3.150367737E-2,5.428122282E-1,-2.757205963E-1,6.096387816E-1
1.384382009E1,-2.035154402E-2,5.100554228E-1,-1.528940201E-1,5.328670576E-1
1.386242603E1,9.011998028E-2,4.608263969E-1,1.549959183E-1,4.944757968E-1
1.388094077E1,1.309670061E-1,3.830987215E-1,6.789827347E-1,7.905280141E-1
1.389950108E1,3.370944262E-1,3.334939480E-1,1.187929153E0,1.279072531E0
1.391806145E1,3.452213407E-1,3.441005945E-1,1.393265724E0,1.476066520E0
1.393662176E1,2.205575705E-1,3.092976809E-1,1.190574646E0,1.249711441E0
1.395518212E1,9.001295269E-2,2.493950129E-1,9.826440811E-1,1.017786615E0
1.397374244E1,8.326604962E-2,2.148872614E-1,1.038985252E0,1.064236874E0
1.399230280E1,3.463964164E-2,2.075160742E-1,9.866867065E-1,1.008867426E0
1.401086312E1,1.235625148E-2,2.402395010E-1,9.901494980E-1,1.018952267E0
1.402942343E1,1.365572214E-3,3.279447556E-1,9.886112213E-1,1.041586182E0
1.404798379E1,7.273001969E-2,2.812659740E-1,8.222436905E-1,8.720578481E-1
1.406654410E1,-4.186475277E-2,2.468613386E-1,4.463853836E-1,5.118135293E-1
1.408510447E1,-1.602166295E-1,1.745100021E-1,1.602096558E-1,2.859899352E-1
1.410371041E1,-1.297630370E-1,5.881762505E-2,2.080450058E-1,2.521521033E-1
1.412222509E1,2.438249737E-1,-2.459818125E-1,6.471080780E-1,7.339663034E-1
1.414078546E1,4.943534136E-1,-5.603008270E-1,1.370839119E0,1.561256611E0
1.415934577E1,3.505020738E-1,-7.390689254E-1,2.111024857E0,2.263956829E0
1.417790614E1,1.822295934E-1,-9.626910686E-1,2.067117691E0,2.287565795E0
1.419646645E1,-1.183800995E-1,-8.318632841E-1,1.098249435E0,1.382809529E0
1.421502676E1,-4.448978007E-1,-3.568872809E-1,-1.107807159E-1,5.810120062E-1
1.423358713E1,-3.373825848E-1,-1.405064464E-1,-1.212480545E0,1.266364143E0
1.425214744E1,-2.144321501E-1,-6.707018614E-2,-1.418654442E0,1.436335609E0
1.427070780E1,-1.563870311E-1,-1.077813506E-1,-2.663869858E-1,3.271631844E-1
1.428926812E1,-1.334070861E-1,-3.612715006E-1,3.808031082E-1,5.415953794E-1
1.430782843E1,-2.797806859E-1,-4.191249609E-1,6.430149078E-2,5.080134317E-1
1.432638879E1,4.535727203E-2,-4.124391675E-1,-6.548118591E-1,7.752044375E-1
1.434494910E1,3.591349721E-1,-2.559498549E-1,-7.277164459E-1,8.509168479E-1
1.436350947E1,3.415642977E-1,-1.201573014E-1,-2.047567368E-1,4.159678687E-1
1.438206978E1,-3.999429941E-2,-7.237732410E-2,2.170476913E-1,2.322664878E-1
1.440063009E1,-4.098306894E-1,-2.346690893E-1,7.705020905E-2,4.785054965E-1
1.441919046E1,-6.979652643E-1,-2.469027042E-1,-2.264423370E-1,7.742044869E-1
1.443775077E1,-5.485752821E-1,-2.274425626E-1,-4.028511047E-1,7.176029348E-1
1.445631114E1,-4.229670167E-1,-1.781945825E-1,-4.135332108E-1,6.177897076E-1
1.447487145E1,-1.497638822E-1,-1.319001317E-1,-2.767429352E-1,3.411942516E-1
1.449343176E1,-8.121526241E-2,7.591044903E-2,-2.674741745E-1,2.896562603E-1
1.451199212E1,9.305110574E-2,1.742920876E-1,-5.442323685E-1,5.789862787E-1
1.453055244E1,9.314951301E-2,1.538868546E-1,-8.750448227E-1,8.933428443E-1
1.454911280E1,6.948348880E-2,1.547761559E-1,-9.554815292E-1,9.704270021E-1
1.456767312E1,7.745260000E-2,1.639390588E-1,-7.486248016E-1,7.702687933E-1
1.458623343E1,6.140011549E-2,1.403575540E-1,-4.748706818E-1,4.989713234E-1
1.460479379E1,4.035630822E-2,6.439757347E-2,-3.534345627E-1,3.615130277E-1
1.462340108E1,-8.679825068E-2,3.544175625E-2,-3.776922226E-1,3.891548142E-1
1.464191447E1,-8.902215958E-2,-8.765459061E-3,-5.446128845E-1,5.519102936E-1
1.466047478E1,-2.676672041E-1,1.997172832E-3,-6.659622192E-1,7.177432677E-1
1.467903509E1,-3.845800161E-1,-3.683072329E-2,-7.255630493E-1,8.220097503E-1
1.469759546E1,-4.519343972E-1,-2.460783720E-2,-6.354722977E-1,7.801764455E-1
1.471615577E1,-3.356909454E-1,2.674746513E-2,-3.643360138E-1,4.961295886E-1
1.473471614E1,-1.883611381E-1,9.153425694E-2,-1.817941666E-1,2.773221187E-1
1.475327645E1,-1.752366126E-1,1.401062012E-1,-2.663049698E-1,3.482182576E-1
1.477183676E1,5.011290312E-3,2.072851062E-1,-4.649333954E-1,5.090729716E-1
1.479039707E1,6.631445885E-2,2.940592766E-1,-4.928531647E-1,5.777306531E-1
1.480895744E1,-4.451391101E-2,2.837650776E-1,-3.488960266E-1,4.519209499E-1
1.482751775E1,-6.938892603E-2,2.168328762E-1,-1.461391449E-1,2.705327502E-1
1.484607812E1,9.529829025E-3,1.924564838E-1,1.783857346E-1,2.625867211E-1
1.486463843E1,5.445820093E-2,-6.412148476E-3,4.535074234E-1,4.568104578E-1
1.488319879E1,2.118924260E-2,-1.295886040E-1,6.375293732E-1,6.509115853E-1
1.490176056E1,-1.512156427E-1,-1.389570832E-1,9.431419373E-1,9.652419155E-1
1.492031942E1,-2.042783797E-1,-1.421158910E-1,1.094131470E0,1.122074087E0
1.493887978E1,-1.611704826E-1,-1.554583311E-1,1.012171745E0,1.036645966E0
1.495744009E1,6.947752833E-2,-3.615212440E-1,1.008699417E0,1.073778027E0
1.497600041E1,2.640948296E-1,-4.361193180E-1,1.374472618E0,1.465988102E0
1.499456077E1,4.224851727E-1,-5.182401538E-1,1.489706993E0,1.632878900E0
1.501312108E1,3.976833820E-1,-5.459819436E-1,1.123074532E0,1.310551319E0
1.503168140E1,3.218336701E-1,-4.942556620E-1,9.449186325E-1,1.113883653E0
1.505024176E1,2.609179914E-1,-4.891255200E-1,1.114130974E0,1.244431517E0
1.506880207E1,3.551937640E-1,-6.141926050E-1,1.042669296E0,1.261171847E0
1.508736244E1,5.739892125E-1,-6.903864145E-1,6.643342972E-1,1.116887226E0
1.510592275E1,6.696290374E-1,-7.469961643E-1,1.424112320E-1,1.013255780E0
1.512448306E1,7.684963942E-1,-7.048535943E-1,-1.321115494E-1,1.051122618E0
1.514308905E1,9.321489930E-1,-7.623989582E-1,1.008415222E-1,1.208438219E0
1.516160374E1,9.031378031E-1,-8.757220507E-1,5.645236969E-1,1.378852423E0
1.518016405E1,8.821673393E-1,-8.287264109E-1,7.329587936E-1,1.415003630E0
1.519872442E1,8.637849689E-1,-6.710541248E-1,2.730321884E-1,1.127379566E0
1.521728473E1,9.000462890E-1,-5.308503509E-1,-5.540447235E-1,1.182730304E0
1.523584509E1,8.124426007E-1,-3.666023016E-1,-9.773283005E-1,1.322736117E0
1.525440541E1,6.774667501E-1,-2.236930132E-1,-9.235773087E-1,1.167045332E0
1.527296572E1,5.812259912E-1,-1.934801340E-1,-8.989486694E-1,1.087826698E0
1.529152608E1,5.238196254E-1,-2.597910762E-1,-1.066078186E0,1.215895185E0
1.531008640E1,4.655578136E-1,-3.999017477E-1,-1.308216095E0,1.445024165E0
1.532864671E1,2.707476914E-1,-4.523731470E-1,-1.344573021E0,1.444237648E0
1.534720707E1,1.982058138E-1,-4.782782793E-1,-1.489847183E0,1.577238183E0
1.536576739E1,1.023893207E-1,-5.147979856E-1,-1.580152512E0,1.665047296E0
1.538437332E1,1.451524198E-1,-5.120379329E-1,-1.173448563E0,1.288500523E0
1.540288806E1,1.728764474E-1,-5.105131269E-1,-9.527006149E-1,1.094599644E0
1.542145077E1,1.219260693E-1,-5.277016163E-1,-8.622093201E-1,1.018204240E0
1.544000869E1,2.519008517E-1,-5.618514419E-1,-1.176612854E0,1.327986781E0
1.545856905E1,2.710540295E-1,-5.236375928E-1,-1.077983856E0,1.228704932E0
1.547712937E1,3.042536974E-2,-5.972211361E-1,-8.068180084E-1,1.004267936E0
1.549568973E1,-3.112931550E-1,-5.926495194E-1,-6.692457199E-1,9.465868765E-1
1.551425004E1,-3.050115705E-1,-4.249733686E-1,-6.796531677E-1,8.576496083E-1
1.553281035E1,8.216601610E-2,-2.575700283E-1,-8.705148697E-1,9.115315200E-1
1.555137072E1,2.744300067E-1,-1.538476944E-1,-8.887605667E-1,9.428023582E-1
1.556993103E1,2.460370213E-1,-1.887450218E-1,-5.166292191E-1,6.025484620E-1
1.558849134E1,2.746086717E-1,-3.034846187E-1,4.106521606E-2,4.113382894E-1
1.560705171E1,3.279500902E-1,-2.141497135E-1,4.375314713E-1,5.872351742E-1
1.562561202E1,4.235774577E-1,-7.135736942E-2,1.878404617E-1,4.688216888E-1
1.564417233E1,3.379256129E-1,8.131277561E-2,-9.434509277E-2,3.601478639E-1
1.566273270E1,1.692928076E-1,1.948152781E-1,-1.662120819E-1,3.069845329E-1
1.568129301E1,3.162512183E-2,1.853965521E-1,-1.187238693E-1,2.224126503E-1
1.569985332E1,1.376663893E-1,1.961467266E-1,-8.715820312E-2,2.549943636E-1
1.571841369E1,2.142775953E-1,1.557757854E-1,3.747940063E-4,2.649172015E-1
1.573697400E1,2.059041709E-1,1.658668518E-1,1.822919846E-1,3.211521567E-1
1.575553431E1,3.756570816E-1,1.734205484E-1,7.005214691E-2,4.196429826E-1
1.577409468E1,3.218337297E-1,2.008242607E-1,-2.226161957E-1,4.398469096E-1
1.579265499E1,1.530555636E-1,1.698539257E-1,-2.410869598E-1,3.322638768E-1
1.581121530E1,4.056712985E-2,1.261124611E-1,-1.952190399E-1,2.359248152E-1
1.582977567E1,3.371396661E-2,5.557918549E-2,-2.412767410E-1,2.498802577E-1
1.584833598E1,1.097539961E-1,2.264928818E-2,-1.858119965E-1,2.169908476E-1
1.586689629E1,6.642714143E-2,5.562078953E-2,2.882289886E-2,9.130715659E-2
1.588545666E1,6.573399901E-2,5.671989918E-2,-6.895256042E-2,1.108718232E-1
1.590406254E1,4.247441888E-2,4.727566242E-2,-2.116003036E-1,2.209383467E-1
1.592257728E1,-6.997349858E-2,9.026861191E-2,-7.505989075E-2,1.366700406E-1
1.594113910E1,-6.225347519E-2,6.299257278E-2,1.084938049E-1,1.400516516E-1
1.595969796E1,-8.318462968E-2,5.313229561E-2,6.089305878E-2,1.159771014E-1
1.597825827E1,-4.665288329E-2,7.514870167E-2,9.171199799E-2,1.274162841E-1
1.599681864E1,-6.008020043E-2,1.593002081E-1,1.548786163E-1,2.301598848E-1
1.601537895E1,-6.045821309E-2,1.091659069E-1,5.187702179E-2,1.351429471E-1
1.603393926E1,-8.903896809E-2,-8.813142776E-3,-7.444286346E-2,1.163930807E-1
1.605249962E1,1.108959317E-2,-5.590057373E-2,-7.842445374E-2,9.694456232E-2
1.607105994E1,5.495360494E-2,4.216980934E-2,2.081565857E-1,2.193794787E-1
1.608962030E1,4.393258691E-2,2.428233624E-2,1.421642303E-1,1.507659525E-1
1.610818062E1,-1.008012891E-1,-3.068041801E-2,2.471733093E-2,1.082272349E-1
1.612674093E1,-9.691911936E-2,-1.450359821E-1,-3.156185150E-2,1.772707034E-1
1.614530119E1,-5.485078692E-2,-1.357294321E-1,-4.544830322E-2,1.532861241E-1
1.616386160E1,1.081325114E-1,-2.001690865E-2,-1.471900940E-2,1.109502857E-1
1.618243775E1,1.307942271E-1,2.104544640E-2,-1.468849182E-1,1.978009602E-1
1.620098228E1,4.589647055E-2,1.410567760E-2,-3.146371841E-1,3.182797728E-1
1.621954259E1,6.573471427E-2,3.943085670E-3,-2.630214691E-1,2.711399893E-1
1.623810291E1,7.951152325E-2,-6.153678894E-2,-1.299047470E-1,1.642683841E-1
1.625666327E1,-5.248683691E-2,-5.243444443E-2,-6.048583984E-2,9.572238940E-2
1.627522358E1,-6.982183456E-2,-6.812655926E-2,-3.293895721E-2,1.029625736E-1
1.629378390E1,4.007479548E-2,-4.613149166E-2,-5.220508575E-2,8.037085750E-2
1.631234421E1,2.146422863E-2,-4.718601704E-2,1.138086319E-1,1.250585383E-1
1.633090457E1,4.324972630E-3,-4.310619831E-2,2.291145325E-1,2.331744384E-1
1.634946489E1,1.522222608E-1,4.356801510E-2,1.225242615E-1,2.002048533E-1
1.636802520E1,1.908098906E-1,1.523497105E-1,-6.118774414E-3,2.442463675E-1
1.638658556E1,1.066311002E-1,1.274353266E-1,-1.787929535E-1,2.440837442E-1
1.640514588E1,6.876444817E-2,5.830097198E-2,-2.009124756E-1,2.202121148E-1
1.642375296E1,3.153541684E-2,8.207380772E-2,-1.056108475E-1,1.374199532E-1
1.644226655E1,9.801766276E-2,1.344056129E-1,-5.816459656E-2,1.762255694E-1
1.646082686E1,1.922597438E-1,1.771364212E-1,-6.484127045E-2,2.693427392E-1
1.647938718E1,2.299450785E-1,1.832396984E-1,-4.778289795E-2,2.978837551E-1
1.649794754E1,2.715820074E-2,1.168292761E-1,2.751541138E-2,1.230599264E-1
1.651650785E1,-1.147049665E-2,-3.886473179E-2,2.794456482E-2,4.922335191E-2
1.653506817E1,1.152941585E-2,-4.588103294E-2,3.713321686E-2,6.014043904E-2
1.655362853E1,8.775255084E-2,-1.611161232E-2,3.476142883E-3,8.928705281E-2
1.657218884E1,1.028578728E-1,5.250549316E-2,1.557350159E-2,1.165294073E-1
1.659074916E1,9.593561292E-2,6.653559208E-2,-8.353042603E-2,1.435547244E-1
1.660930947E1,-3.133845329E-2,1.537156105E-2,-3.983592987E-2,5.296493984E-2
1.662786983E1,-6.585353613E-2,-5.021047592E-2,7.630157471E-2,1.126042202E-1
1.664643015E1,-4.742941260E-2,-9.747838974E-2,1.467752457E-1,1.824679654E-1
1.666499041E1,2.096807957E-2,-2.072691917E-2,2.271966934E-1,2.291017308E-1
1.668355082E1,1.625881344E-1,5.971789360E-2,1.180505753E-1,2.096117043E-1
1.670215676E1,1.067007929E-1,5.471277237E-2,-4.343128204E-2,1.275336149E-1
1.672067145E1,6.634750962E-2,4.462659359E-2,-3.626346588E-2,8.779842736E-2
1.673923181E1,9.921698272E-2,9.286081791E-2,2.245712280E-2,1.377369360E-1
1.675779212E1,1.625735164E-1,1.222833395E-1,-1.599760056E-1,2.587966107E-1
1.677635244E1,1.196800619E-1,1.527003050E-1,-2.849969864E-1,3.447665625E-1
1.679491280E1,3.011691570E-2,1.479880810E-1,-1.929645538E-1,2.450363642E-1
1.681347312E1,-4.931783676E-2,7.488989830E-2,-1.014575958E-1,1.354045407E-1
1.683203343E1,-1.107976437E-1,3.706550598E-2,5.328178406E-2,1.284091823E-1
1.685059374E1,-6.073117256E-2,2.175211906E-3,2.378892899E-1,2.455286564E-1
1.686915410E1,5.951473117E-2,8.814859390E-2,4.959774017E-2,1.173546491E-1
1.688771442E1,9.150362015E-2,1.496161222E-1,1.286506653E-2,1.758505231E-1
1.690627473E1,1.121432930E-1,1.125218868E-1,-4.067993164E-2,1.639882618E-1
1.692483509E1,3.042885661E-2,1.143372059E-1,3.743267059E-2,1.240972070E-1
1.694341124E1,7.392838597E-2,5.721032619E-2,9.841918945E-4,9.348473838E-2
1.696195572E1,3.051167727E-2,9.517467022E-2,6.010341644E-2,1.166259018E-1
1.698060796E1,5.789008737E-2,1.205654144E-1,1.365594864E-1,1.911433355E-1
1.699907640E1,7.514351606E-2,1.407060623E-1,-6.614017487E-2,1.726825605E-1
1.701763671E1,2.391988039E-2,1.153973341E-1,-3.681793213E-1,3.865808040E-1
1.703619702E1,-1.835364103E-2,7.075488567E-2,-3.869132996E-1,3.937575540E-1
1.705475739E1,-1.458016038E-2,4.608452320E-2,1.754760742E-3,4.836779446E-2
1.707331770E1,2.284142375E-2,3.441345692E-2,2.151975632E-1,2.191255527E-1
1.709187801E1,3.528839350E-2,5.284976959E-2,1.197242737E-1,1.355443491E-1
1.711043838E1,1.234884113E-1,7.511317730E-2,-1.808748245E-1,2.315320265E-1
1.712899869E1,1.839652807E-1,8.583462238E-2,-2.638330460E-1,3.328944022E-1
1.714755900E1,6.846746802E-2,5.737316608E-2,-1.364860535E-1,1.631193341E-1
1.716611931E1,-8.943122625E-2,9.651660919E-3,1.376342773E-1,1.644210847E-1
1.718467968E1,-2.056196332E-2,4.360878468E-2,9.449768066E-2,1.060864369E-1
1.720323999E1,9.073369205E-2,7.752859592E-2,2.210330963E-2,1.213748012E-1
1.722181619E1,7.530033588E-2,7.472050190E-2,2.416324615E-2,1.087986969E-1
1.724036067E1,7.077933848E-2,1.418459415E-2,4.223728180E-2,8.363555130E-2
1.725892098E1,1.052777320E-1,2.316570282E-2,2.720260620E-2,1.111756827E-1
1.727748129E1,1.217319071E-1,-1.045370102E-2,9.386062622E-2,1.540706144E-1
1.729604160E1,1.225115955E-1,-4.264271259E-2,1.025133133E-1,1.653374470E-1
1.731460197E1,9.358417988E-2,4.999601841E-2,6.048107147E-2,1.221292782E-1
1.733316228E1,1.698027402E-1,1.086839437E-1,-1.668510437E-1,2.616953209E-1
1.735172259E1,1.411756277E-1,7.805657387E-2,-4.276475906E-1,4.570621931E-1
1.737028296E1,-5.632954836E-2,3.728628159E-2,-2.944049835E-1,3.020555895E-1
1.738884327E1,-9.856206179E-2,-6.688368320E-2,-2.140045166E-2,1.210201902E-1
1.740740358E1,-5.456101894E-2,-4.304909706E-2,9.568405151E-2,1.182605905E-1
1.742596390E1,6.672063470E-2,2.290678024E-2,1.055583954E-1,1.269603817E-1
1.744452426E1,7.816252112E-2,-8.440494537E-3,-1.180009842E-1,1.417915862E-1
1.746313015E1,-4.196232557E-2,-4.792451859E-2,-8.642005920E-2,1.073593167E-1
1.748164489E1,5.799055099E-3,-1.095381975E-1,-3.784656525E-2,1.160370986E-1
1.750020655E1,1.141673326E-1,-3.283619881E-2,-6.721496582E-3,1.189856055E-1
1.751876556E1,2.764035761E-1,4.701650143E-2,-2.985477448E-2,2.819588549E-1
1.753732588E1,2.372489274E-1,7.523286343E-2,1.829910278E-2,2.495634076E-1
1.755588619E1,6.676161289E-2,3.081190586E-2,-6.920814514E-3,7.385380269E-2
1.757444655E1,-2.391853929E-2,3.164362907E-2,-3.407096863E-2,5.229002473E-2
1.759300686E1,6.278532743E-2,3.986394405E-2,-6.002426147E-2,9.557218917E-2
1.761156718E1,1.392603368E-1,1.154524088E-1,6.050872803E-2,1.907459207E-1
1.763012749E1,2.774594128E-1,1.790621281E-1,1.358289719E-1,3.570664939E-1
1.764868785E1,2.658311427E-1,2.225873470E-1,3.264713287E-2,3.482487024E-1
1.766724817E1,2.048530430E-1,2.215430737E-1,-6.418228149E-2,3.084890078E-1
1.768580848E1,1.234896779E-1,1.052243710E-1,2.715492249E-2,1.644969866E-1
1.770436879E1,8.499172330E-2,8.994650841E-2,4.508399963E-2,1.317062429E-1
1.772292916E1,2.006428391E-1,1.001123190E-1,1.578731537E-1,2.742334005E-1
1.774153619E1,2.165940255E-1,1.086528301E-1,1.007499695E-1,2.624289727E-1
1.776004978E1,1.473987401E-1,9.331262112E-2,-7.232952118E-2,1.888523060E-1
1.777861009E1,4.698336124E-2,5.964159966E-3,-1.032352448E-1,1.135804701E-1
1.779717046E1,-1.104061902E-1,-4.078483582E-2,5.610466003E-3,1.178321136E-1
1.781573077E1,-6.674778461E-2,-4.943513870E-2,8.811759949E-2,1.210942238E-1
1.783429108E1,3.078520298E-2,6.168484688E-3,8.343124390E-2,8.914343152E-2
1.785285145E1,1.154673100E-2,2.407991886E-2,3.405380249E-2,4.327621695E-2
1.787141176E1,-4.183977842E-2,2.999055386E-2,-1.772594452E-1,1.845830742E-1
1.788997207E1,-3.015160561E-2,2.277767658E-2,-1.121978760E-1,1.183904778E-1
1.790853239E1,-3.409284353E-2,8.980786800E-2,-1.187419891E-2,9.679241569E-2
1.792709275E1,-7.651215792E-2,8.938264847E-2,-7.818222046E-3,1.179173132E-1
1.794565306E1,-8.139687777E-2,1.037044525E-1,-1.124849319E-1,1.733001013E-1
1.796421338E1,2.436220646E-2,9.146165848E-2,-1.970500946E-1,2.186035038E-1
1.798278957E1,-7.621258497E-2,9.818983078E-2,-5.762863159E-2,1.370060588E-1
1.800133405E1,-8.301624656E-2,5.362141132E-2,-1.386737823E-2,9.979607770E-2
1.801998645E1,-4.072058201E-2,5.779337883E-2,2.307987213E-2,7.437016158E-2
1.803845468E1,8.732123673E-2,4.950749874E-2,7.163619995E-2,1.233196495E-1
1.805701499E1,7.753162086E-2,4.955196381E-2,1.331987381E-1,1.618902504E-1
1.807557535E1,8.206388354E-2,-1.368010044E-2,1.001071930E-2,8.379642374E-2
1.809413567E1,-4.227051139E-2,2.843523026E-2,-5.789852142E-2,7.712066672E-2
1.811269598E1,1.971215010E-3,2.245581150E-2,-9.987545013E-2,1.023877664E-1
1.813125629E1,-1.104900241E-2,3.626370430E-2,-2.428579330E-1,2.457989267E-1
1.814981666E1,2.420869470E-2,6.221318245E-2,-2.237930298E-1,2.335377082E-1
1.816837697E1,-9.279549122E-4,1.294627190E-1,-1.130161285E-1,1.718548865E-1
1.818693728E1,-1.266491413E-2,6.332492828E-2,-2.833747864E-2,7.052275723E-2
1.820549759E1,9.946972132E-3,7.500338554E-2,-7.086658478E-2,1.036654375E-1
1.822405796E1,2.574801445E-3,6.997907162E-2,5.529212952E-2,8.922398586E-2
1.824261827E1,-3.073096275E-2,5.011677742E-2,6.883621216E-2,9.052351935E-2
1.826117858E1,1.832416654E-2,4.812335968E-2,7.172393799E-2,8.829471166E-2
1.827973890E1,4.606106877E-2,6.756317616E-2,1.232595444E-1,1.479165985E-1
1.829829926E1,2.701511979E-2,9.536564350E-2,1.676406860E-1,1.947506669E-1
1.831685957E1,3.101277351E-2,1.391707659E-1,4.674911499E-3,1.426609582E-1
1.833541989E1,2.633339167E-2,1.166377068E-1,-2.176589966E-1,2.483409772E-1
1.835398020E1,-2.197554708E-2,1.012445688E-1,-1.972475052E-1,2.228002821E-1
1.837254056E1,3.417190909E-2,8.480739594E-2,-6.220149994E-2,1.105849916E-1
1.839110088E1,9.436474741E-2,1.020843983E-1,-5.375862122E-2,1.490500563E-1
1.840966119E1,9.389302135E-2,1.004326344E-1,7.282066345E-2,1.555810481E-1
1.842822150E1,2.764284611E-2,9.555184841E-2,-9.175014496E-2,1.353232123E-1
1.844678187E1,8.533298969E-3,4.252350330E-2,-1.785488129E-1,1.837409701E-1
1.846534218E1,-1.024462581E-1,6.109559536E-2,-1.871452332E-1,2.219262171E-1
1.848390249E1,-2.253219485E-2,3.013813496E-2,-1.271677017E-1,1.326183673E-1
1.850250843E1,-1.240587234E-2,7.668411732E-2,7.761955261E-3,7.806796697E-2
1.852102312E1,2.738314867E-2,8.644747734E-2,-9.095668793E-2,1.284372308E-1
1.853958348E1,2.171972394E-2,1.027507782E-1,-1.702528000E-1,2.000387081E-1
1.855814379E1,-3.223377466E-2,1.225693226E-1,-6.976699829E-2,1.446709685E-1
1.857670410E1,-2.527812123E-2,1.367026567E-1,-4.631137848E-2,1.465310327E-1
1.859526442E1,3.070083261E-2,7.342958450E-2,-1.203346252E-2,8.049378376E-2
1.861382478E1,-4.183465242E-2,5.354130268E-2,1.442842484E-1,1.594827688E-1
1.863238509E1,2.465200424E-2,4.908680916E-3,-3.443431854E-2,4.263260202E-2
1.865094541E1,2.624553442E-2,4.160797596E-2,-2.495222092E-1,2.543253519E-1
1.866950572E1,1.238010079E-1,6.121718884E-2,-2.059345245E-1,2.479581863E-1
1.868806603E1,7.274098694E-2,1.347342730E-1,-1.617336273E-2,1.539680264E-1
1.870662640E1,5.227780342E-2,7.661271095E-2,1.020622253E-1,1.379100216E-1
1.872518671E1,4.234315455E-2,6.195187569E-2,-2.153015137E-2,7.806743915E-2
1.874379259E1,-2.846598625E-3,2.309262753E-2,-1.768360138E-1,1.783601647E-1
1.876230733E1,5.384236574E-3,3.874886036E-2,-1.104536057E-1,1.171770591E-1
1.878095978E1,2.310883999E-2,6.537032127E-2,8.117008209E-2,1.067514853E-1
1.879942801E1,4.209743440E-2,3.002762794E-2,1.955013275E-1,2.022241862E-1
1.881798832E1,3.180086613E-3,3.776013851E-2,1.864347458E-1,1.902468277E-1
1.883654864E1,-6.315860152E-2,-2.105116844E-3,3.897857666E-2,7.424802961E-2
1.885510895E1,-3.499355912E-2,5.375218391E-2,-1.600837708E-2,6.610684225E-2
1.887366931E1,5.572606623E-2,1.110727787E-1,3.972053528E-3,1.243315480E-1
1.889222963E1,1.621271670E-1,8.293533325E-2,-1.076793671E-1,2.115616550E-1
1.891078994E1,1.726944745E-1,7.944071293E-2,-1.991472244E-1,2.753067841E-1
1.892935025E1,1.995850503E-1,7.939457893E-3,-1.579494476E-1,2.546473156E-1
1.894791062E1,1.927729547E-1,-6.493175030E-2,-3.049755096E-2,2.056882225E-1
1.896647093E1,2.331115007E-1,-2.773690224E-2,1.346054077E-1,2.706084317E-1
1.898503124E1,3.416559398E-1,-4.791367054E-2,7.072353363E-2,3.521737061E-1
1.900359155E1,3.197430670E-1,-8.113133907E-2,-6.404113770E-2,3.360345078E-1
1.902224390E1,2.310993224E-1,-5.494034290E-2,-5.778503418E-2,2.444676835E-1
1.904071223E1,2.826180458E-1,-5.631864071E-2,-1.399841309E-1,3.203752581E-1
1.905927254E1,2.513028383E-1,-1.493656635E-2,-2.090473175E-1,3.272262192E-1
1.907783285E1,1.919062287E-1,2.191340923E-2,-2.048454285E-1,2.815490147E-1
1.909639317E1,1.098342687E-1,-6.207227707E-4,-2.699193954E-1,2.914111047E-1
1.911495348E1,3.425042331E-2,1.894593239E-2,-1.298761368E-1,1.356460495E-1
1.913351384E1,1.469936967E-2,-1.196324825E-2,-4.342079163E-3,1.944336465E-2
1.915207416E1,-7.821355760E-2,-2.561128139E-2,3.814125061E-2,9.070861770E-2
1.917063447E1,-7.094603777E-2,-8.426904678E-4,-3.402709961E-3,7.103258997E-2
1.918919478E1,-9.097416699E-2,4.862213135E-2,1.411437988E-3,1.031620224E-1
1.920775515E1,-1.159925312E-1,9.878039360E-2,5.068016052E-2,1.605624867E-1
1.922631546E1,-1.361621320E-1,8.208048344E-2,4.890727997E-2,1.663407767E-1
1.924496702E1,-1.017389148E-1,1.656556129E-2,7.157707214E-2,1.254930352E-1
1.926348171E1,-1.012388617E-1,1.332712173E-2,7.705593109E-2,1.279239454E-1
1.928199640E1,-5.947467685E-2,3.833997250E-2,1.664304733E-1,1.808488129E-1
1.930064869E1,-1.123021543E-2,9.178519249E-2,1.121025085E-1,1.453189999E-1
1.931911707E1,8.047506213E-3,1.224324703E-1,-7.997035980E-2,1.464572654E-1
1.933767739E1,-8.731484413E-3,1.359902620E-1,-2.761135101E-1,3.079095008E-1
1.935623770E1,2.220371366E-2,1.364024878E-1,-2.608757019E-1,2.952198764E-1
1.937479801E1,6.362880766E-2,1.457067728E-1,-3.859138489E-2,1.636104636E-1
1.939335838E1,8.090130985E-2,1.042321920E-1,3.677272797E-2,1.369730094E-1
1.941191869E1,1.119825244E-2,1.093199253E-1,-7.048511505E-2,1.305541971E-1
1.943047900E1,-7.529616356E-3,1.939998865E-1,-1.357879639E-1,2.369198646E-1
1.944903931E1,-1.246240735E-2,2.387229204E-1,-2.607383728E-1,3.537349903E-1
1.946759963E1,-1.507745981E-1,2.775835991E-1,-2.343835831E-1,3.933462825E-1
1.948615999E1,-2.322526574E-1,2.132201195E-1,-1.760854721E-1,3.611235380E-1
1.950472030E1,-2.821429968E-1,1.770899296E-1,-1.879844666E-1,3.824966320E-1
1.952328062E1,-3.072115481E-1,1.394279003E-1,-4.887008667E-2,3.408920064E-1
1.954188650E1,-2.281914353E-1,1.452908516E-1,-3.514671326E-2,2.727930611E-1
1.956040124E1,-1.441225708E-1,1.676101685E-1,-2.310562134E-1,3.197678184E-1
1.957896160E1,-3.493371606E-2,1.568908691E-1,-4.406871796E-1,4.690845335E-1
1.959752192E1,-5.219060183E-2,1.341770887E-1,-4.787693024E-1,4.999473922E-1
1.961608223E1,-1.559506953E-1,2.440021038E-1,-4.525680542E-1,5.372852964E-1
1.963464254E1,-2.553339601E-1,3.497078419E-1,-5.027284622E-1,6.634959778E-1
1.965320285E1,-2.454441190E-1,3.985955715E-1,-3.951845169E-1,6.126108451E-1
1.967176317E1,-1.369608939E-1,3.193032742E-1,-3.040151596E-1,4.616688040E-1
1.969032353E1,-1.326641440E-2,1.526589394E-1,-1.829900742E-1,2.386757565E-1
1.970888384E1,-5.502603948E-2,5.526041985E-2,2.249956131E-1,2.381272873E-1
1.972744416E1,-1.491296589E-1,2.239847183E-2,6.541452408E-1,6.713027207E-1
1.974600447E1,-1.846112460E-1,5.567681789E-2,6.596698761E-1,6.872740106E-1
1.976456478E1,-3.316563964E-1,1.915436983E-1,3.122301102E-1,4.941382350E-1
1.978312515E1,-4.837104678E-1,3.321208954E-1,-3.538274765E-1,6.851817197E-1
1.980168546E1,-5.353382230E-1,4.659626484E-1,-7.588367462E-1,1.039009822E0
1.982024577E1,-4.554479122E-1,5.528740287E-1,-6.361093521E-1,9.579862213E-1
1.983880608E1,-3.923986554E-1,5.581397414E-1,-3.970699310E-1,7.894056029E-1
1.985736640E1,-4.402737319E-1,5.356110334E-1,-1.758165359E-1,7.152842739E-1
1.987592676E1,-3.723289967E-1,5.071774125E-1,1.411914825E-2,6.293307238E-1
1.989448707E1,-2.910501659E-1,4.684666991E-1,4.469108582E-2,5.533249862E-1
1.991304739E1,-2.691227794E-1,4.174215794E-1,1.616668701E-2,4.969197189E-1
1.993160770E1,-2.444613576E-1,3.860271573E-1,1.328935623E-1,4.758560922E-1
1.995016801E1,-1.957449615E-1,3.815328479E-1,2.433614731E-1,4.930600476E-1
1.996872832E1,-1.619056016E-1,4.556437135E-1,1.572160721E-1,5.084697737E-1
1.998728869E1,-1.836412251E-1,5.980764031E-1,1.136016846E-2,6.257383934E-1
2.000584900E1,-1.242885590E-1,6.365775466E-1,-1.637945175E-1,6.689598364E-1
2.002440931E1,-1.381796449E-1,7.158056498E-1,-3.159952164E-1,7.945591981E-1
2.004296962E1,-2.279426157E-1,7.727848291E-1,-4.399213791E-1,9.179787841E-1
2.006162187E1,-2.497093827E-1,8.274801970E-1,-4.571437836E-1,9.777825377E-1
2.008009030E1,-1.808784008E-1,8.175433874E-1,-5.216608047E-1,9.865212524E-1
2.009865062E1,-2.125694454E-1,9.452199340E-1,-6.014137268E-1,1.140317922E0
2.011721093E1,-2.204651982E-1,1.029247761E0,-6.200275421E-1,1.221634155E0
2.013577124E1,-3.200400174E-1,1.138195753E0,-5.088672638E-1,1.287191158E0
2.015433155E1,-3.099678457E-1,1.181321144E0,-3.418378830E-1,1.268247945E0
2.017289186E1,-2.152325362E-1,1.243813753E0,-3.556842804E-1,1.311453013E0
2.019145223E1,-2.536753416E-1,1.339282990E0,-3.184165955E-1,1.399792568E0
2.021001254E1,-2.903891206E-1,1.390551329E0,-3.952283859E-1,1.474504770E0
2.022857285E1,-3.339681923E-1,1.524323463E0,-3.298158646E-1,1.594953065E0
2.024713317E1,-2.553570867E-1,1.695668221E0,-3.197822571E-1,1.744350495E0
2.026569343E1,-1.457282305E-1,1.801824331E0,-3.972434998E-1,1.850840359E0
2.028425379E1,-1.827172041E-1,1.837422252E0,-1.904964447E-1,1.856285270E0
2.030285978E1,-2.887457013E-1,1.826664567E0,1.854848862E-1,1.858623728E0
2.032137447E1,-3.135983348E-1,1.663512945E0,5.131683350E-1,1.768886931E0
2.033993478E1,-4.520446062E-1,1.463168859E0,1.147502899E0,1.913627535E0
2.035849509E1,-6.720189452E-1,1.372205615E0,1.925463676E0,2.458041513E0
2.037705541E1,-6.647632122E-1,1.350681782E0,1.776131630E0,2.328281549E0
2.039561572E1,-6.224163175E-1,1.421622753E0,1.465845108E0,2.134740079E0
2.041417603E1,-5.956141353E-1,1.419097304E0,1.693400383E0,2.288274069E0
2.043273640E1,-5.719212890E-1,1.168485761E0,2.026305199E0,2.407979587E0
2.045129671E1,-7.660920024E-1,9.440822601E-1,2.770005226E0,3.025081358E0
2.046985697E1,-1.048165679E0,7.092400789E-1,3.884304047E0,4.085277311E0
2.048841733E1,-1.283625484E0,4.635881782E-1,4.259470940E0,4.472773308E0
2.050697765E1,-1.163339972E0,1.734628677E-1,3.388470650E0,3.586806742E0
2.052553796E1,-1.114160299E0,-1.078004763E-1,2.076771736E0,2.359227619E0
2.054408535E1,-1.936127663E0,1.064479351E-3,2.628690720E0,3.264752113E0
2.056265864E1,-3.011934757E0,3.888807297E-1,3.740612030E0,4.818211033E0
2.058122035E1,-3.459854603E0,1.639260650E-1,5.607152939E0,6.590723003E0
2.059976634E1,-4.137818336E0,3.177823722E-1,8.232419014E0,9.219286797E0
2.061833957E1,-2.942756414E0,7.064607143E-1,7.629837990E0,8.208125840E0
2.063689989E1,-1.382498622E0,8.184145093E-1,4.225004196E0,4.520151016E0
2.065544728E1,-2.120965123E-1,7.056193054E-2,3.497225761E0,3.504361845E0
2.067402056E1,-2.683839202E-1,-4.872281849E-1,6.566870689E0,6.590387840E0
2.069258088E1,3.136453032E-1,-3.419344425E-1,8.262355804E0,8.275374069E0
2.071112827E1,1.908659935E0,7.612508535E-2,6.287504196E0,6.571262192E0
2.072970150E1,3.370626688E0,7.040445507E-2,2.383097649E0,4.128587587E0
2.074826181E1,3.747167587E0,-3.809272349E-1,-1.636538506E0,4.106656641E0
2.076680921E1,3.373593569E0,-1.319127440E0,-4.383325100E0,5.686367004E0
2.078556817E1,2.183205366E0,-2.034770727E0,-6.256940842E0,6.932242514E0
2.080448634E1,-8.134925365E-1,-1.416869879E0,-6.569078445E0,6.769200986E0
2.082343088E1,-2.648258209E0,2.494838834E-2,-5.124794483E0,5.768657769E0
2.084236223E1,-2.691259146E0,1.540640712E0,-3.786516666E0,4.894298526E0
2.086128567E1,-5.379411578E-1,2.013517857E0,-4.031366825E0,4.538232401E0
2.088022499E1,1.428735614E0,1.815561056E0,-5.954239845E0,6.386745614E0
2.089915791E1,1.747794151E0,8.670568466E-1,-7.869619846E0,8.107865841E0
2.091807457E1,1.909746885E0,-4.182375073E-1,-8.975205421E0,9.185661007E0
2.093701910E1,1.513413668E0,-1.090710878E0,-8.900302887E0,9.093704560E0
2.095595046E1,1.374364614E0,-1.544691563E0,-8.546010971E0,8.792568091E0
2.097488181E1,1.111341357E0,-1.879387856E0,-7.925611019E0,8.220856911E0
2.099381322E1,6.927980185E-1,-2.278057098E0,-8.128095627E0,8.469678374E0
2.101274457E1,5.735409260E-1,-2.237672329E0,-8.644776344E0,8.948088326E0
2.103129379E1,3.495784998E-1,-2.201112747E0,-7.231353283E0,7.567005534E0
2.104986702E1,6.745362282E-2,-1.847120523E0,-6.435199261E0,6.695386004E0
2.106842733E1,9.849733114E-2,-1.492720962E0,-3.702615261E0,3.993404233E0
2.108697473E1,2.121035099E0,-1.784754634E0,2.195902824E0,3.536400459E0
2.110554796E1,4.863728523E0,-2.529220104E0,4.352499008E0,6.999789790E0
2.112410827E1,3.065956116E0,-2.419535398E0,3.741521835E0,5.408624972E0
2.114265567E1,4.910733104E-1,-1.524806142E0,3.432353973E0,3.787775147E0
2.116122895E1,-8.348407149E-1,-1.695083380E0,7.434256554E0,7.670621695E0
2.117978926E1,-1.875103474E0,-1.361920834E0,1.113296795E1,1.137162331E1
2.119833666E1,-1.938410401E0,-9.145957828E-1,1.234938526E1,1.253400322E1
2.121690989E1,-1.355450153E0,-5.327272415E-2,1.066232109E1,1.074826377E1
2.123547020E1,-1.486160159E-1,1.133347988E0,7.496627808E0,7.583270592E0
2.125401759E1,7.739182711E-1,1.939095259E0,3.701385498E0,4.249622868E0
2.127259088E1,5.167630911E-1,2.064193010E0,1.483996391E0,2.594259464E0
2.129115119E1,5.727097392E-2,1.617301702E0,9.494686127E-2,1.621098291E0
2.130969858E1,-5.442752838E-1,1.263568521E0,-1.555585861E-1,1.384571943E0
2.132827181E1,-1.224796057E0,1.063496470E0,7.217664719E-1,1.775414589E0
2.134683213E1,-1.129961252E0,4.444136620E-1,5.553379059E-1,1.335183929E0
2.136537952E1,-1.087666035E0,4.625747800E-1,-7.985544205E-1,1.426422796E0
2.138395275E1,-4.575741291E-2,6.679027677E-1,-2.666801453E0,2.749548660E0
2.140251306E1,8.860410452E-1,8.678485155E-1,-3.818350792E0,4.014726958E0
2.142107343E1,1.348508358E0,1.062011003E0,-3.922217846E0,4.281370691E0
2.143963374E1,1.193562269E0,1.127788544E0,-3.450854301E0,3.821634899E0
2.145819405E1,6.639220119E-1,7.179149389E-1,-2.642054081E0,2.817205009E0
2.147675436E1,-2.038675547E-2,-1.340389252E-1,-2.069181919E0,2.073619027E0
2.149531468E1,-7.052552700E-1,-9.180074930E-1,-1.750466347E0,2.098631741E0
2.151387499E1,-1.009850025E0,-1.019472122E0,-1.704510689E0,2.228110673E0
2.153243530E1,-1.135971904E0,-7.067011595E-1,-2.048653603E0,2.446802051E0
2.155099562E1,-1.233738422E0,-3.507488966E-1,-1.808428288E0,2.217103551E0
2.156955593E1,-7.746471167E-1,-2.576997280E-1,-6.194791794E-1,1.024813036E0
2.158810332E1,-6.408383846E-1,-3.353183270E-1,1.486891747E0,1.653468863E0
2.160667660E1,-3.322378397E-1,-6.842176914E-1,3.051067352E0,3.144447141E0
2.162523692E1,-1.406645775E-1,-1.135657310E0,3.449049950E0,3.633930325E0
2.164379723E1,1.121324301E-1,-1.609269857E0,3.010782242E0,3.415718499E0
2.166237338E1,4.119634032E-1,-1.976818085E0,2.774696350E0,3.431685216E0
2.168091785E1,2.218657732E-2,-1.939428687E0,2.365278244E0,3.058826090E0
2.169947817E1,-1.101831198E-1,-1.857012033E0,1.313462257E0,2.277238923E0
2.171803848E1,8.336669207E-2,-1.565780163E0,4.396324158E-1,1.628463750E0
2.173659884E1,4.104784727E-1,-1.267033577E0,-4.052877426E-1,1.392165513E0
2.175514619E1,6.713636518E-1,-9.849778414E-1,-1.099117279E0,1.621409663E0
2.177371947E1,7.849414349E-1,-7.295994759E-1,-1.616628647E0,1.939571250E0
2.179227978E1,9.714824557E-1,-5.604878664E-1,-1.997189045E0,2.290565190E0
2.181082718E1,1.189425707E0,-5.553272963E-1,-2.803784370E0,3.095856701E0
2.182940041E1,1.178732514E0,-6.234240532E-1,-3.347488880E0,3.603297059E0
2.184796072E1,9.264751077E-1,-5.533647537E-1,-3.137786865E0,3.318173457E0
2.186652103E1,8.399397135E-1,-4.640848637E-1,-2.729389191E0,2.893171069E0
2.188508134E1,8.217862248E-1,-4.202716351E-1,-2.741743565E0,2.892942900E0
2.190368728E1,6.993227005E-1,-3.378388882E-1,-2.672311306E0,2.782882511E0
2.192220202E1,5.038729310E-1,-2.377569675E-1,-2.380029202E0,2.444372170E0
2.194085499E1,3.323270082E-1,-1.317951679E-1,-1.738797665E0,1.775169999E0
2.195932265E1,3.834498525E-1,-4.123353958E-2,-8.232145309E-1,9.090743414E-1
2.197788296E1,3.587641120E-1,4.879283905E-2,-2.862167358E-1,4.615327172E-1
2.199644327E1,3.294644356E-1,9.231519699E-2,-2.346887589E-1,4.149068853E-1
2.201500358E1,1.205247641E-1,1.601097584E-1,-3.013820648E-1,3.619288638E-1
2.203356390E1,-1.255968213E-1,3.076140881E-1,4.962444305E-2,3.359517436E-1
2.205212421E1,-6.151741743E-2,4.661488533E-1,7.112445831E-1,8.526124578E-1
2.207068452E1,1.436327696E-1,6.344778538E-1,1.168761253E0,1.337608084E0
2.208924489E1,4.856172502E-1,6.602385044E-1,1.676910400E0,1.866485330E0
2.210780520E1,7.922483087E-1,5.383980274E-1,1.878396988E0,2.108531494E0
2.212636551E1,6.173809767E-1,4.508326054E-1,1.558743477E0,1.736113630E0
2.214492582E1,2.655604482E-1,5.998051167E-1,8.164100647E-1,1.047288844E0
2.216348614E1,3.302568495E-1,5.203719139E-1,1.737632751E-1,6.403516153E-1
2.218209207E1,7.537233233E-1,-6.055355072E-3,4.072198868E-1,8.567167278E-1
2.220059384E1,7.048853636E-1,-4.091452360E-1,1.995726585E0,2.155733704E0
2.221916707E1,3.859280944E-1,-8.157548904E-1,3.154749870E0,3.281286833E0
2.223772739E1,3.694594800E-1,-6.818591356E-1,2.186516762E0,2.319975805E0
2.225627478E1,5.798388720E-1,-3.056268692E-1,1.580533981E-1,6.742416312E-1
2.227484801E1,1.132717490E0,-2.112436295E-2,-1.444162369E0,1.835510855E0
2.229340838E1,1.167196035E0,6.829023361E-2,-1.705597878E0,2.067867080E0
2.231196869E1,8.535119295E-1,-1.947056055E-1,-1.081063271E0,1.391075369E0
2.233052900E1,3.444913626E-1,-5.378593206E-1,-3.128528595E-1,7.112270097E-1
2.234908931E1,2.528814971E-1,-7.685694695E-1,7.996368408E-2,8.130450613E-1
2.236764963E1,4.655560255E-1,-7.172766924E-1,1.315813065E-1,8.651831636E-1
2.238620989E1,7.220908403E-1,-7.105072737E-1,-4.792289734E-1,1.120667737E0
2.240477025E1,4.037497044E-1,-4.853395224E-1,-3.176927567E-1,7.067509911E-1
2.242337614E1,1.814185977E-1,-2.953579426E-1,-2.242059708E-1,4.128163504E-1
2.244189088E1,9.345781803E-2,-1.429747343E-1,-5.982036591E-1,6.221123340E-1
2.246045119E1,1.205537021E-1,6.939733028E-2,-7.497377396E-1,7.625325322E-1
2.247901150E1,2.457167506E-1,2.056261301E-1,-1.031400681E0,1.080021384E0
2.249757181E1,3.003942668E-1,1.833038330E-1,-9.144668579E-1,9.798401119E-1
2.251613218E1,4.651035666E-1,2.969985008E-1,-8.203010559E-1,9.886471866E-1
2.253469249E1,6.732811332E-1,3.729648590E-1,-7.809257507E-1,1.096474030E0
2.255325280E1,8.682638407E-1,3.534499407E-1,-5.645227432E-1,1.094301094E0
2.257181312E1,1.078707457E0,3.971080780E-1,-2.737360001E-1,1.181624306E0
2.259037343E1,1.179880619E0,3.466577530E-1,-1.140556335E-1,1.235029781E0
2.260893374E1,9.588581324E-1,2.494947910E-1,-1.002397537E-1,9.958436509E-1
2.262749405E1,6.958444715E-1,2.613277435E-1,1.152868271E-1,7.521853299E-1
2.264605436E1,9.304766655E-1,3.351548910E-1,5.143003464E-1,1.114728878E0
2.266461468E1,1.250943303E0,4.404306412E-1,4.195232391E-1,1.390984560E0
2.268317499E1,1.301708341E0,4.611918926E-1,2.994194031E-1,1.413079808E0
2.270173535E1,1.388966084E0,4.320679903E-1,3.618297577E-1,1.498943062E0
2.272029562E1,1.345678568E0,3.936325312E-1,4.652538300E-1,1.477246934E0
2.273885598E1,1.282437682E0,3.087720871E-1,3.913593292E-1,1.375917416E0
2.275741629E1,9.445170164E-1,3.671718836E-1,-1.547718048E-2,1.013492540E0
2.277597660E1,6.880736351E-1,4.638915062E-1,-7.052516937E-2,8.328351916E-1
2.279453692E1,6.591600180E-1,4.813938141E-1,1.643686295E-1,8.326157456E-1
2.281309723E1,7.596753836E-1,3.251899481E-1,6.546897888E-1,1.054264630E0
2.283165754E1,9.294572473E-1,-1.387549639E-1,1.416713715E0,1.700065135E0
2.285021785E1,6.501684785E-1,-3.734947443E-1,2.305768013E0,2.424620280E0
2.286877817E1,2.587060332E-1,-6.155499220E-1,2.643038750E0,2.726074898E0
2.288733848E1,1.602423787E-1,-7.458798289E-1,2.106472015E0,2.240365749E0
2.290589879E1,-9.696841240E-3,-5.971654654E-1,1.051310539E0,1.209113093E0
2.292445910E1,4.651182890E-2,-5.130983591E-1,2.543001175E-1,5.745448861E-1
2.294306499E1,-6.902766228E-2,-5.042319298E-1,-5.927639008E-1,7.812705672E-1
2.296157973E1,-2.394151688E-1,-5.166431665E-1,-1.086095810E0,1.226313130E0
2.298023202E1,-1.632215977E-1,-5.360908508E-1,-1.243715286E0,1.364134306E0
2.299870041E1,-8.686906099E-2,-6.347025633E-1,-7.926034927E-1,1.019124072E0
2.301726072E1,1.087053418E-1,-8.530756235E-1,-2.800207138E-1,9.044149882E-1
2.303582103E1,2.053484917E-1,-1.109207034E0,3.822622299E-1,1.191063667E0
2.305438134E1,1.330715716E-1,-1.380162597E0,6.629505157E-1,1.536899549E0
2.307294166E1,-5.740600824E-2,-1.509360552E0,8.517284393E-1,1.734043269E0
2.309150197E1,-1.578190327E-1,-1.450057745E0,7.698059082E-1,1.649295440E0
2.311006228E1,-3.935927153E-2,-1.212171674E0,1.666860580E-1,1.224211404E0
2.312862259E1,1.517295837E-2,-8.887379766E-1,-3.392925262E-1,9.514225286E-1
2.314718291E1,5.950444937E-2,-6.492537260E-1,-5.030498505E-1,8.234866922E-1
2.316574322E1,4.190135002E-2,-4.448721409E-1,-7.540912628E-1,8.765389766E-1
2.318434910E1,2.149533033E-1,-3.003457785E-1,-1.049747467E0,1.112826246E0
2.320286384E1,2.884632051E-1,-1.858775616E-1,-1.117495537E0,1.168998616E0
2.322142416E1,3.871479332E-1,-1.145414114E-1,-1.007867813E0,1.085725926E0
2.323998447E1,3.934368789E-1,-1.096462011E-1,-8.184108734E-1,9.146645422E-1
2.325854478E1,2.244999111E-1,-8.624744415E-2,-5.643777847E-1,6.134827753E-1
2.327710509E1,1.587931514E-1,-1.687040329E-1,-2.689208984E-1,3.549574133E-1
2.329566546E1,6.077140570E-2,-2.799080610E-1,-3.710079193E-2,2.888220129E-1
2.331422577E1,-1.409244537E-2,-2.507632971E-1,2.162008286E-1,3.313964792E-1
2.333278608E1,-6.559497118E-2,-1.248300076E-1,2.739429474E-1,3.081070747E-1
2.335134640E1,1.056969166E-3,-8.102202415E-2,4.902839661E-3,8.117711142E-2
2.336990671E1,-3.136330843E-2,-9.420156479E-3,-9.373569489E-2,9.929137404E-2
2.338846702E1,-1.159631014E-1,1.224528551E-1,-7.502841949E-2,1.845844152E-1
2.340702733E1,-2.158270478E-1,2.972906828E-1,-5.277156830E-2,3.711440463E-1
2.342558765E1,-5.994820595E-2,3.816474676E-1,-3.441066742E-1,5.173567243E-1
2.344414796E1,2.356487513E-2,4.943590164E-1,-5.273838043E-1,7.232425717E-1
2.346270827E1,5.150830746E-2,5.594632626E-1,-4.411964417E-1,7.143574372E-1
2.348126858E1,-9.018850327E-2,5.948989391E-1,-4.983453751E-1,7.812725688E-1
2.349982890E1,-4.091482162E-1,6.384011507E-1,-4.539480209E-1,8.837573750E-1
2.351838921E1,-3.918740153E-1,6.774270535E-1,-7.022380829E-2,7.857506219E-1
2.353694952E1,-1.385359764E-1,6.708861589E-1,2.735805511E-1,7.376494920E-1
2.355550983E1,3.855508566E-2,6.270762682E-1,3.702259064E-1,7.292313505E-1
2.357407015E1,2.393955886E-1,5.369632244E-1,4.281978607E-1,7.273191598E-1
2.359263046E1,2.488959432E-1,5.977421999E-1,2.555875778E-1,6.961105789E-1
2.361119077E1,2.103442848E-1,6.800392866E-1,-4.305553436E-2,7.131282693E-1
2.362975108E1,3.304816782E-1,4.922860861E-1,-3.771114349E-2,5.941261319E-1
2.364831140E1,3.550248146E-1,4.292557240E-1,5.244865417E-1,7.651073310E-1
2.366687171E1,2.293285728E-1,1.645059586E-1,1.592125893E0,1.616947328E0
2.368543207E1,1.671503782E-1,-4.653590918E-1,2.344429016E0,2.396006207E0
2.370399369E1,-9.403467178E-3,-7.605198622E-1,2.574812889E0,2.684798000E0
2.372255270E1,-1.490202546E-1,-9.266900420E-1,2.362994194E0,2.542578029E0
2.374111301E1,-2.792389393E-1,-1.005522728E0,1.319195747E0,1.682060570E0
2.375966035E1,-1.030073762E-1,-9.041651487E-1,1.043157578E-1,9.159732054E-1
2.377823364E1,2.857221961E-1,-7.469559312E-1,-9.640226364E-1,1.252565360E0
2.379679395E1,5.609861612E-1,-6.215720177E-1,-1.752435207E0,1.942185985E0
2.381535426E1,5.317313671E-1,-7.486296296E-1,-1.557697296E0,1.808205031E0
2.383391457E1,6.634114981E-1,-9.717532396E-1,-4.527416229E-1,1.260711764E0
2.385247489E1,5.926262140E-1,-1.189041853E0,-2.793312073E-3,1.328545882E0
2.387103520E1,2.769861221E-1,-1.348875999E0,-2.228078842E-1,1.394930510E0
2.388959551E1,-1.402767897E-1,-1.143983364E0,-2.149457932E-1,1.172423647E0
2.390815582E1,-2.000733614E-1,-9.424214363E-1,-3.759384155E-2,9.641580838E-1
2.392671614E1,-1.410411596E-1,-7.901807427E-1,-2.161884308E-1,8.312735125E-1
2.394527645E1,-2.488616705E-1,-5.613088608E-1,-2.685537338E-1,6.701648127E-1
2.396383676E1,-2.101242542E-2,-3.145242929E-1,-1.181573868E-1,3.366425715E-1
2.398239707E1,3.353176415E-1,-2.137317657E-1,-2.837085724E-1,4.884769620E-1
2.400095739E1,4.603268504E-1,-1.716960669E-1,-7.248306274E-1,8.756482097E-1
2.401951770E1,5.552683473E-1,-3.886103630E-3,-8.678998947E-1,1.030334056E0
2.403807801E1,6.352978945E-1,1.074196100E-1,-1.092733383E0,1.268545874E0
2.405663832E1,4.691040516E-1,2.529919147E-2,-1.106343269E0,1.201954279E0
2.407519864E1,2.085393965E-1,-1.044195890E-1,-4.457578659E-1,5.030827024E-1
2.409375895E1,1.541871130E-1,-2.372907400E-1,9.087848663E-2,2.972195493E-1
2.411231926E1,2.682771385E-1,-2.183014154E-1,3.808145523E-1,5.144393592E-1
2.413087957E1,2.514884472E-1,-2.546530962E-1,2.092103958E-1,4.145643836E-1
2.414943989E1,4.418923855E-1,-8.448934555E-2,5.757045746E-2,4.535655272E-1
2.416800020E1,3.818561137E-1,1.025259495E-2,-2.464523315E-1,4.545964793E-1
2.418656051E1,1.823089421E-1,6.176388264E-2,-3.367948532E-1,3.879202247E-1
2.420512082E1,7.823717594E-2,9.883892536E-2,4.990768433E-2,1.355764206E-1
2.422368114E1,6.043910980E-2,6.806206703E-2,1.983070374E-1,2.181994776E-1
2.424224145E1,2.101699710E-1,6.932377815E-3,2.747793198E-1,3.460103310E-1
2.426089405E1,3.805889189E-1,1.164078712E-2,3.103590012E-1,4.912292161E-1
2.427936213E1,5.116590261E-1,1.451754570E-1,3.311376572E-1,6.265165763E-1
2.429792239E1,6.038073301E-1,1.520892382E-1,4.842004776E-1,7.887740683E-1
2.431648270E1,4.738428295E-1,2.667256594E-1,1.736688614E-1,5.708156251E-1
2.433504306E1,3.863715827E-1,3.618941307E-1,3.050823212E-1,6.110037516E-1
2.435360338E1,4.078746736E-1,3.055168390E-1,6.942300797E-1,8.611955015E-1
2.437216369E1,5.565292835E-1,1.362907887E-1,1.189011574E0,1.319866866E0
2.439072400E1,7.958053350E-1,-1.499364376E-1,1.606299400E0,1.798884329E0
2.440928431E1,3.728483915E-1,-1.789768934E-1,1.790736198E0,1.837875073E0
2.442784463E1,-4.725974798E-2,-2.021936178E-1,1.198859215E0,1.216708330E0
2.444640494E1,7.760584354E-3,-2.377768755E-1,-1.368637085E-1,2.744626457E-1
2.446496525E1,1.717857122E-1,2.222120762E-2,-6.939134598E-1,7.152062658E-1
2.448352556E1,2.473400235E-1,1.600277424E-2,-6.664199829E-1,7.110195283E-1
2.450213150E1,1.909966469E-1,-1.312729120E-1,-8.385114670E-1,8.699504450E-1
2.452064619E1,2.678489685E-1,-3.778842688E-1,-6.129961014E-1,7.683123133E-1
2.453920650E1,-2.232795954E-2,-5.169560909E-1,-5.672311783E-1,7.677847012E-1
2.455776681E1,-3.425996900E-1,-8.591889739E-1,1.745824814E-1,9.413072204E-1
2.457632713E1,-4.812259674E-1,-1.368085027E0,5.960111618E-1,1.567949099E0
2.459488744E1,-6.421549916E-1,-1.483760834E0,1.209487915E-1,1.621276613E0
2.461344775E1,-5.394160151E-1,-1.454212070E0,-2.182769775E-1,1.566316449E0
2.463200806E1,-1.814339757E-1,-1.272939920E0,-3.226308823E-1,1.325663990E0
2.465056838E1,-2.042728066E-1,-1.221574068E0,7.701683044E-2,1.240927949E0
2.466912869E1,-2.172318101E-1,-1.363179684E0,7.487907410E-1,1.570393608E0
2.468768900E1,-2.242798209E-1,-1.359040380E0,7.093191147E-1,1.549330758E0
2.470624931E1,-3.113389611E-1,-1.337092996E0,2.338209152E-1,1.392631268E0
2.472480963E1,-2.668512464E-1,-1.203722000E0,-1.542491913E-1,1.242557465E0
2.474341697E1,-1.494879127E-1,-9.704905748E-1,-3.077545166E-1,1.029034224E0
2.476193025E1,-5.757004023E-2,-8.440002799E-1,-3.358669281E-1,9.101963389E-1
2.478051395E1,-2.130963802E-1,-8.069952130E-1,-3.168373108E-1,8.927694118E-1
2.479905088E1,-4.382885695E-1,-7.781097889E-1,-8.753776550E-3,8.931004100E-1
2.481761119E1,-4.688032269E-1,-7.882182598E-1,1.174249649E-1,9.245826697E-1
2.483617150E1,-4.525952935E-1,-7.299275398E-1,1.300077438E-1,8.686418863E-1
2.485473181E1,-2.725337744E-1,-7.248946428E-1,6.820106506E-2,7.774305671E-1
2.487329213E1,-1.700530052E-1,-5.887963772E-1,-7.786655426E-2,6.177883122E-1
2.489185244E1,-1.263186336E-1,-5.228639841E-1,1.187467575E-1,5.508574548E-1
2.491041275E1,-5.475729704E-2,-5.415579081E-1,1.852254868E-1,5.749711387E-1
2.492897306E1,-1.684838533E-2,-5.574306250E-1,2.401809692E-1,6.072064457E-1
2.494753338E1,-2.937349975E-1,-4.755096436E-1,4.584112167E-1,7.228627211E-1
2.496609369E1,-4.919341803E-1,-4.763682485E-1,5.088500977E-1,8.531438142E-1
2.498465395E1,-6.071503758E-1,-4.051123261E-1,6.369590759E-2,7.326696011E-1
2.500321431E1,-8.261688948E-1,-2.283229828E-1,-1.737308502E-1,8.745677992E-1
2.502182020E1,-9.238708019E-1,-5.654549599E-2,-2.228240967E-1,9.520426618E-1
2.504033494E1,-9.171140790E-1,8.090341091E-2,-2.579193115E-1,9.561202681E-1
2.505889525E1,-9.418326020E-1,1.338363886E-1,-4.117498398E-1,1.036580320E0
2.507745556E1,-8.897793293E-1,1.082894802E-1,-6.243886948E-1,1.092380478E0
2.509601588E1,-9.316984415E-1,1.635249853E-1,-5.511093140E-1,1.094771155E0
2.511457619E1,-8.651109934E-1,2.185945511E-1,-4.306068420E-1,9.907688232E-1
2.513313650E1,-7.890460491E-1,2.304728031E-1,-3.587150574E-1,8.968767323E-1
2.515169676E1,-5.825505257E-1,1.923608780E-1,-2.043008804E-1,6.466116857E-1
2.517025707E1,-5.947170258E-1,5.092704296E-2,-1.761903763E-1,6.223543630E-1
2.518881744E1,-8.811308146E-1,-1.053987741E-1,-5.279541016E-3,8.874279055E-1
2.520737775E1,-9.144943953E-1,-2.996625900E-1,1.866865158E-1,9.802803283E-1
2.522593801E1,-6.930588484E-1,-2.352142334E-1,-2.572345734E-2,7.323373534E-1
2.524449838E1,-3.311841786E-1,-4.922962189E-2,-1.884231567E-1,3.842002106E-1
2.526310541E1,-3.859165311E-2,-4.261517525E-2,-2.155933380E-1,2.231274440E-1
2.528161895E1,9.137329459E-2,4.112517834E-2,-2.041320801E-1,2.273989124E-1
2.530017926E1,1.128824055E-1,4.002714157E-2,-2.307119370E-1,2.599473166E-1
2.531873957E1,1.050187945E-1,3.535127640E-2,-7.617187500E-2,1.344649192E-1
2.533729989E1,2.792275250E-1,9.510147572E-2,4.704093933E-2,2.987057940E-1
2.535586020E1,5.690424442E-1,1.645768881E-1,1.717796326E-1,6.167682690E-1
2.537442051E1,7.140797973E-1,2.018593550E-1,4.054670334E-1,8.456126011E-1
2.539298082E1,5.513319373E-1,2.835803032E-1,5.485334396E-1,8.278125560E-1
2.541154114E1,5.536157489E-1,3.988382816E-1,3.991899490E-1,7.905156467E-1
2.543010145E1,7.988735437E-1,5.808906555E-1,-8.154010773E-2,9.911012470E-1
2.544866176E1,1.038271666E0,6.929212809E-1,-3.047027588E-1,1.284909228E0
2.546722207E1,1.009006023E0,7.629029751E-1,-1.552934647E-1,1.274452888E0
2.548578239E1,9.786109924E-1,7.068803310E-1,-1.040458679E-2,1.207256200E0
2.550434270E1,9.430596828E-1,7.652686834E-1,1.862993240E-1,1.228700599E0
2.552290301E1,1.025225043E0,7.677754164E-1,8.523559570E-2,1.283678537E0
2.554146332E1,1.079910278E0,8.802138567E-1,-2.528495789E-1,1.415950406E0
2.556002364E1,1.084087133E0,1.004058719E0,-5.325841904E-1,1.570676524E0
2.557858395E1,1.114085436E0,1.073578238E0,-5.681591034E-1,1.648199429E0
2.559714426E1,1.163682938E0,1.027205586E0,-5.967750549E-1,1.662964149E0
2.561570457E1,1.204155803E0,9.451491833E-1,-4.671049118E-1,1.600464050E0
2.563426489E1,1.159429550E0,8.384662867E-1,-1.764307022E-1,1.441676243E0
2.565282520E1,9.659873843E-1,7.513535023E-1,-1.346235275E-1,1.231173102E0
2.567138551E1,9.911313653E-1,6.439827681E-1,-1.895933151E-1,1.197080120E0
2.568994582E1,1.051755428E0,6.560983658E-1,-8.810234070E-2,1.242745577E0
2.570850614E1,1.246394277E0,5.546420813E-1,8.416938782E-2,1.366825160E0
2.572706645E1,1.248791575E0,3.599262238E-1,4.002599716E-1,1.359865924E0
2.574562676E1,1.053598762E0,2.074146271E-1,6.198816299E-1,1.239896936E0
2.576418707E1,8.837969899E-1,1.675105095E-1,7.404842377E-1,1.165106775E0
2.578279296E1,8.392603993E-1,2.047804594E-1,6.048336029E-1,1.054569458E0
2.580130770E1,9.457382560E-1,2.250827551E-1,2.148065567E-1,9.956028085E-1
2.581995775E1,1.114519358E0,2.789217234E-1,-5.062103271E-2,1.150005746E0
2.583842827E1,9.256874323E-1,4.125832319E-1,-6.946563721E-2,1.015848227E0
2.585698858E1,6.532737017E-1,3.212523460E-1,4.825592041E-3,7.280061026E-1
2.587554890E1,8.768321276E-1,2.022814751E-2,3.323955536E-1,9.379395300E-1
2.589410921E1,1.329989433E0,-4.953306913E-1,9.406175613E-1,1.702640826E0
2.591266952E1,8.736488223E-1,-7.323831916E-1,1.588948250E0,1.955608331E0
2.593122983E1,2.932687402E-1,-9.624496102E-1,1.828087807E0,2.086676984E0
2.594979015E1,-5.744379759E-2,-9.113459587E-1,1.190196037E0,1.500139278E0
2.596835046E1,2.085510492E-1,-8.591811657E-1,8.351879120E-1,1.216233803E0
2.598691077E1,3.807616830E-1,-8.216620088E-1,7.732324600E-1,1.190796520E0
2.600547108E1,2.086781263E-1,-8.583207130E-1,3.366889954E-1,9.453150197E-1
2.602407707E1,1.973003745E-1,-9.214929342E-1,-3.332157135E-1,9.995545895E-1
2.604259171E1,8.858340979E-2,-9.266441464E-1,-6.729393005E-1,1.148635581E0
2.606124379E1,6.896013021E-2,-9.960047007E-1,-3.980216980E-1,1.074803301E0
2.607971233E1,8.379638195E-2,-1.113062620E0,-2.435722351E-1,1.142478737E0
2.609827265E1,1.397876740E-1,-1.144442797E0,-1.700687408E-1,1.165424080E0
2.611683291E1,2.728524208E-1,-1.131263733E0,-1.217212677E-1,1.170052197E0
2.613539322E1,2.138679624E-1,-1.141426086E0,-1.308460236E-1,1.168637539E0
2.615395353E1,2.236209512E-1,-1.144363999E0,-1.435079575E-1,1.174806293E0
2.617251384E1,2.186070085E-1,-1.160834312E0,1.243591309E-3,1.181239549E0
2.619107416E1,1.959816217E-1,-1.127964258E0,3.120689392E-1,1.186633552E0
2.620963447E1,3.657561541E-2,-1.009873390E0,3.392791748E-1,1.065970168E0
2.622819478E1,-3.121566772E-2,-8.441238999E-1,-3.556919098E-2,8.454494330E-1
2.624675509E1,5.336344242E-3,-7.228912711E-1,-4.939022064E-1,8.755225045E-1
2.626531541E1,2.626901865E-2,-6.946476698E-1,-6.607284546E-1,9.590555444E-1
2.628387572E1,4.646503925E-2,-7.182375193E-1,-5.246152878E-1,8.906432137E-1
2.630245187E1,-3.877937794E-3,-7.254689932E-1,-1.854591370E-1,7.488093148E-1
2.632099634E1,-5.052423477E-2,-7.718402147E-1,5.576801300E-2,7.754998947E-1
2.633955666E1,-1.122983694E-1,-7.658477426E-1,-1.034908295E-1,7.809251183E-1
2.635811697E1,-1.186552644E-1,-7.926698923E-1,-2.874403000E-1,8.514849124E-1
2.637667728E1,-1.723375916E-1,-7.222790718E-1,-2.001304626E-1,7.690510420E-1
2.639523759E1,-7.215034962E-2,-7.222564816E-1,-5.809783936E-3,7.258745428E-1
2.641379791E1,-1.391480565E-1,-7.196695805E-1,5.400562286E-2,7.349850978E-1
2.643235817E1,-2.132374644E-1,-7.500537634E-1,2.253665924E-1,8.116901904E-1
2.645091848E1,-3.291842341E-1,-7.164846659E-1,2.191448212E-1,8.183746019E-1
2.646947879E1,-3.873420358E-1,-7.450429201E-1,9.249401093E-2,8.447946186E-1
2.648803910E1,-3.829252720E-1,-7.745485902E-1,6.786537170E-2,8.666965969E-1
2.650659942E1,-3.839046359E-1,-7.950652838E-1,1.852560043E-1,9.021260234E-1
2.652515973E1,-3.495587111E-1,-9.278540611E-1,1.551084518E-1,1.003575151E0
2.654372166E1,-3.634161949E-1,-1.059954286E0,8.541011810E-2,1.123774580E0
2.656228035E1,-3.526535034E-1,-1.120533228E0,3.223133087E-2,1.175158741E0
2.658084207E1,-2.484840155E-1,-1.137915373E0,-4.336357117E-2,1.165536830E0
2.659940098E1,-1.910704374E-1,-1.183015585E0,-4.647159576E-2,1.199247012E0
2.661796129E1,-2.185103893E-1,-1.264128923E0,9.472274780E-2,1.286367414E0
2.663652160E1,-2.355231643E-1,-1.305642962E0,2.200326920E-1,1.344837943E0
2.665508192E1,-7.604181767E-2,-1.250567079E0,2.374029160E-1,1.275170781E0
2.667364218E1,2.480434477E-1,-1.150009513E0,1.754360199E-1,1.189464261E0
2.669220249E1,2.930676639E-1,-1.077389121E0,1.997385025E-1,1.134262511E0
2.671076280E1,1.680944860E-1,-1.081781626E0,1.841535568E-1,1.110144033E0
2.672932312E1,8.678966761E-2,-1.131286502E0,-1.316452026E-2,1.134687138E0
2.674788343E1,2.175289094E-1,-1.193730116E0,1.890344620E-1,1.228024610E0
2.676644374E1,4.471032619E-1,-1.255730033E0,6.101398468E-1,1.465956983E0
2.678500405E1,4.594716430E-1,-1.267738819E0,8.290624619E-1,1.582915181E0
2.680356437E1,3.298276961E-1,-1.211661339E0,8.254537582E-1,1.502758602E0
2.682212468E1,2.665133178E-1,-9.809966087E-1,5.454998016E-1,1.153669679E0
2.684068499E1,3.883268237E-1,-7.463026047E-1,2.157421112E-1,8.685101947E-1
2.685924530E1,5.903965235E-1,-6.351314783E-1,-1.500740051E-1,8.800467355E-1
2.687780556E1,6.435521841E-1,-5.718102455E-1,-4.388828278E-1,9.663045623E-1
2.689636588E1,6.405642033E-1,-4.101960659E-1,-5.499572754E-1,9.386353476E-1
2.691492619E1,7.289553881E-1,-2.271581888E-1,-5.773239136E-1,9.572250006E-1
2.693348650E1,9.708127975E-1,-1.553997993E-1,-4.249830246E-1,1.071091573E0
2.695204681E1,1.183540463E0,-1.504455805E-1,-2.644052505E-1,1.222011472E0
2.697060712E1,1.215708375E0,-2.262585163E-1,6.957721710E-2,1.238539769E0
2.698916744E1,9.962855577E-1,-3.369967937E-1,3.387393951E-1,1.104941686E0
2.700772775E1,7.460564971E-1,-4.570040703E-1,5.605020523E-1,1.039045508E0
2.702628806E1,6.005585194E-1,-4.248614311E-1,7.844018936E-1,1.075390209E0
2.704484838E1,6.057972908E-1,-2.968527675E-1,8.324403763E-1,1.071479773E0
2.706345546E1,6.574558020E-1,-8.136749268E-2,6.741094589E-1,9.451414513E-1
2.708196895E1,6.653904319E-1,7.832241058E-2,1.310596466E-1,6.826825454E-1
2.710053062E1,7.558783889E-1,2.995312214E-1,-2.850341797E-1,8.615773761E-1
2.711908957E1,9.295595884E-1,4.272949696E-1,-4.490337372E-1,1.117270476E0
2.713764989E1,1.033863306E0,4.143222570E-1,-5.629138947E-1,1.247961667E0
2.715621020E1,9.207766056E-1,3.339203596E-1,-5.065088272E-1,1.102671101E0
2.717477051E1,8.041221499E-1,1.798412800E-1,-2.654085159E-1,8.656771906E-1
2.719333082E1,6.647068858E-1,9.014225006E-2,4.967880249E-2,6.726283169E-1
2.721189114E1,7.124438882E-1,1.497101784E-2,2.792434692E-1,7.653609216E-1
2.723045145E1,6.251912117E-1,-1.620519161E-2,2.474632263E-1,6.725806329E-1
2.724901171E1,4.909780324E-1,1.116192341E-2,5.540275574E-2,4.942200746E-1
2.726757202E1,5.960171223E-1,6.105661392E-2,-1.203823090E-1,6.111106450E-1
2.728613233E1,6.581197381E-1,1.568183899E-1,-1.733245850E-1,6.983945939E-1
2.730469265E1,6.409581900E-1,1.992628574E-1,-3.202342987E-1,7.436955652E-1
2.732325296E1,5.762805939E-1,2.957791090E-1,-2.944326401E-1,7.115301706E-1
2.734181327E1,5.485073328E-1,3.149057627E-1,-1.308403015E-1,6.458677248E-1
2.736037358E1,4.971038401E-1,3.456457853E-1,-1.846790314E-1,6.330004592E-1
2.737893390E1,6.081085801E-1,4.004851580E-1,-2.856664658E-1,7.821698899E-1
2.739749416E1,6.666535735E-1,4.489994049E-1,-3.881711960E-1,8.925829542E-1
2.741605447E1,6.517841220E-1,4.649667740E-1,-4.162836075E-1,9.023905388E-1
2.743461478E1,5.784625411E-1,4.440261126E-1,-2.880954742E-1,7.840772299E-1
2.745317509E1,4.944442213E-1,3.825669289E-1,-2.104072571E-1,6.596239511E-1
2.747173541E1,4.413549006E-1,3.221852779E-1,-2.439622879E-1,5.984271882E-1
2.749029572E1,3.878028989E-1,3.204530478E-1,-2.288475037E-1,5.526775046E-1
2.750885603E1,3.854357898E-1,2.856305838E-1,-3.028402328E-1,5.673251141E-1
2.752741634E1,2.425397635E-1,3.404580355E-1,-1.820182800E-1,4.559252845E-1
2.754597660E1,2.555469275E-1,3.559134007E-1,-2.601432800E-2,4.389251943E-1
2.756453692E1,3.356274962E-1,3.272168636E-1,-5.274295807E-2,4.716974790E-1
2.758314285E1,4.876173437E-1,1.046221256E-1,1.501846313E-1,5.208376777E-1
2.760165754E1,4.682591558E-1,-8.451366425E-2,6.559267044E-1,8.103388414E-1
2.762021785E1,1.077871919E-1,-1.289843321E-1,8.160209656E-1,8.331537991E-1
2.763877817E1,-2.018725872E-1,-1.479333639E-1,2.798233032E-1,3.754169717E-1
2.765733848E1,-2.753595114E-1,-4.951548576E-2,-3.408012390E-1,4.409309791E-1
2.767589874E1,-2.575081587E-1,3.508841991E-2,-7.756385803E-1,8.180200831E-1
2.769445905E1,-3.311089873E-1,-9.175789356E-2,-7.189931870E-1,7.968713042E-1
2.771301936E1,-4.578312635E-1,-3.812212944E-1,-3.691425323E-1,7.008604357E-1
2.773157968E1,-4.977647066E-1,-6.719709635E-1,2.249374390E-1,8.659743243E-1
2.775013999E1,-3.930099010E-1,-8.239948750E-1,7.509832382E-1,1.182116813E0
2.776870030E1,-3.453267813E-1,-8.410425186E-1,9.958810806E-1,1.348474038E0
2.778726062E1,-3.652796745E-1,-7.431287766E-1,8.722352982E-1,1.202690332E0
2.780582093E1,-4.337337017E-1,-5.674102902E-1,2.719030380E-1,7.642058777E-1
2.782438119E1,-3.826408386E-1,-3.868894577E-1,-5.067081451E-1,7.435392446E-1
2.784294150E1,-2.610805631E-1,-2.636460066E-1,-9.200735092E-1,9.920723459E-1
2.786150317E1,-2.801789343E-1,-3.094331026E-1,-6.091127396E-1,7.384222435E-1
2.788006213E1,-4.502958059E-1,-5.042957067E-1,-2.004718781E-2,6.763744247E-1
2.789862244E1,-6.915875673E-1,-5.285848379E-1,3.880996704E-1,9.530564770E-1
2.791718275E1,-6.195037365E-1,-4.887412786E-1,4.039812088E-1,8.864839164E-1
2.793574306E1,-4.754394293E-1,-3.239670396E-1,2.198076248E-1,6.158836624E-1
2.795430332E1,-3.613244295E-1,-1.822432876E-1,6.922912598E-2,4.105613610E-1
2.797286364E1,-4.673963189E-1,-8.817172050E-2,-1.093330383E-1,4.880443469E-1
2.799142395E1,-6.789213419E-1,-7.735896111E-2,-2.301549911E-1,7.210339224E-1
2.800998426E1,-8.945143819E-1,-4.584360123E-2,-3.412294388E-1,9.584858606E-1
2.802854457E1,-7.547279000E-1,4.328274727E-2,-2.978839874E-1,8.125407493E-1
2.804710489E1,-5.211144686E-1,1.375643015E-1,-2.305107117E-1,5.861905958E-1
2.806566515E1,-4.624407887E-1,2.169637680E-1,-1.400089264E-1,5.296482410E-1
2.808422546E1,-4.812335372E-1,2.487008572E-1,-4.472064972E-2,5.435418753E-1
2.810278577E1,-5.339915156E-1,2.053656578E-1,5.896472931E-2,5.751511379E-1
2.812134608E1,-5.892133713E-1,1.067178249E-1,1.618089676E-1,6.202767391E-1
2.813990640E1,-7.106195092E-1,1.147161722E-1,1.931381226E-1,7.452799618E-1
2.815846671E1,-6.698076725E-1,1.505938768E-1,2.117404938E-1,7.184391906E-1
2.817702702E1,-4.888883233E-1,2.107336521E-1,1.852788925E-1,5.636920549E-1
2.819558733E1,-4.781543612E-1,2.978295088E-1,4.141330719E-2,5.648442896E-1
2.821414759E1,-4.762412906E-1,2.742867470E-1,-8.358764648E-2,5.559009634E-1
2.823270791E1,-4.502944350E-1,3.350683451E-1,-2.846689224E-1,6.293427282E-1
2.825126822E1,-4.485400915E-1,4.351314306E-1,-2.852354050E-1,6.869401807E-1
2.826982853E1,-3.816463351E-1,5.300669670E-1,-6.551074982E-2,6.564423607E-1
2.828838884E1,-3.587549925E-1,5.414777994E-1,8.998394012E-2,6.557442042E-1
2.830694916E1,-3.951991200E-1,5.343053341E-1,6.828022003E-2,6.680768840E-1
2.832550942E1,-3.543775082E-1,4.885711670E-1,6.172657013E-2,6.067086393E-1
2.834406973E1,-4.325454235E-1,5.361913443E-1,1.936244965E-2,6.891818378E-1
2.836263004E1,-3.927776814E-1,5.857746601E-1,-7.216453552E-2,7.089527344E-1
2.838128233E1,-3.530541062E-1,6.830809116E-1,-1.937160492E-1,7.929518532E-1
2.839975067E1,-1.955080032E-1,7.224152088E-1,-2.149629593E-1,7.786630768E-1
2.841831093E1,-2.330294251E-1,6.682351828E-1,-1.531524658E-1,7.240833172E-1
2.843687124E1,-3.718793988E-1,5.905154943E-1,1.040153503E-1,7.055650427E-1
2.845543155E1,-4.546394348E-1,5.752489567E-1,2.781295776E-1,7.841966844E-1
2.847399187E1,-3.617438674E-1,5.136802197E-1,3.136558533E-1,7.022150582E-1
2.849255218E1,-2.694412470E-1,5.062947273E-1,2.480401993E-1,6.248654871E-1
2.851111249E1,-2.746507525E-1,5.403159857E-1,3.175544739E-2,6.069454742E-1
2.852967275E1,-7.802185416E-2,3.854243755E-1,-3.537616730E-1,5.289486556E-1
2.854823306E1,1.857175529E-1,1.903074980E-1,-4.056644440E-1,4.850480330E-1
2.856679338E1,1.073112041E-1,-1.325743198E-1,7.348155975E-2,1.857180240E-1
2.858535369E1,-2.122691274E-1,-4.046294093E-1,8.700008392E-1,9.826925265E-1
2.860391400E1,-1.986236274E-1,-6.306960583E-1,1.540337563E0,1.676266288E0
2.862247431E1,-1.666642278E-1,-6.725390553E-1,1.923418999E0,2.044413459E0
2.864103457E1,-1.418056786E-1,-5.455840230E-1,1.446408272E0,1.552374847E0
2.865959489E1,-1.247564405E-1,-4.089274406E-1,3.238086700E-1,5.363188193E-1
2.867815520E1,-1.001926064E-1,-2.038557529E-1,-7.477111816E-1,7.814523258E-1
2.869671551E1,6.263048947E-2,-1.322470903E-1,-1.183127403E0,1.192141906E0
2.871527582E1,9.119477123E-2,-1.669641733E-1,-9.820718765E-1,1.000329292E0
2.873383614E1,1.855596453E-1,-4.459897280E-1,-3.819179535E-1,6.157926133E-1
2.875239640E1,5.965974927E-2,-5.585426688E-1,8.965969086E-2,5.688304306E-1
2.877095671E1,-1.034507155E-2,-6.269315481E-1,2.779512405E-1,6.858622884E-1
2.878951702E1,-8.276849985E-2,-6.410800219E-1,4.285087585E-1,7.755346383E-1
2.880807733E1,-1.165983826E-1,-5.499340296E-1,1.586990356E-1,5.841301256E-1
2.882663765E1,-2.518183589E-1,-4.462223053E-1,-3.804273605E-1,6.381628384E-1
2.884519791E1,-3.558802009E-1,-3.011362553E-1,-7.659339905E-1,8.966541359E-1
2.886380379E1,-3.918063045E-1,-1.746028662E-1,-8.915643692E-1,9.893863581E-1
2.888231853E1,-2.943385243E-1,-8.192682266E-2,-9.055185318E-1,9.556730522E-1
2.890088056E1,-2.016130090E-1,5.994701385E-2,-8.396158218E-1,8.655611926E-1
2.891943916E1,1.168692112E-2,2.365096807E-1,-8.515033722E-1,8.838163871E-1
2.893799942E1,3.036799431E-1,3.884705305E-1,-8.330707550E-1,9.680587502E-1
2.895655973E1,3.401439488E-1,4.170401096E-1,-7.167978287E-1,8.963367036E-1
2.897512004E1,3.024083376E-1,3.231785297E-1,-5.716552734E-1,7.229695128E-1
2.899368035E1,6.474554539E-3,2.933714390E-1,-3.172187805E-1,4.321301607E-1
2.901224062E1,-1.201993227E-1,2.085205317E-1,-3.195381165E-2,2.427956659E-1
2.903080093E1,-5.899906158E-3,1.619609594E-1,2.142906189E-2,1.634789466E-1
2.904936124E1,1.721309125E-1,1.965748072E-1,-3.688716888E-2,2.638775646E-1
2.906792155E1,2.843847871E-1,1.999868155E-1,-2.187738419E-1,4.107693116E-1
2.908648187E1,1.032112241E-1,2.263848782E-1,-2.027320862E-1,3.209407556E-1
2.910504218E1,1.628234684E-1,2.841058969E-1,-5.265235901E-2,3.316623486E-1
2.912360244E1,3.015792966E-1,3.006712198E-1,-1.854038239E-2,4.262593111E-1
2.914220947E1,3.873141408E-1,3.245834112E-1,-2.045316696E-1,5.451603786E-1
2.916072306E1,3.907255232E-1,3.255580664E-1,-3.596162796E-1,6.228790875E-1
2.917928338E1,3.863751888E-1,3.772742748E-1,-2.364826202E-1,5.895300626E-1
2.919784364E1,2.997034788E-1,3.451116085E-1,-2.663516998E-2,4.578576524E-1
2.921640395E1,1.837165356E-1,3.088581562E-1,3.061494827E-1,4.720938804E-1
2.923496426E1,6.593629718E-2,2.490426302E-1,6.660366058E-1,7.141250502E-1
2.925352457E1,-2.669107914E-2,1.798243523E-1,7.517137527E-1,7.733839780E-1
2.927208489E1,-1.785516739E-2,1.591200829E-1,3.595848083E-1,3.936232236E-1
2.929064515E1,-2.475059628E-1,3.721537590E-1,1.002597809E-2,4.470549655E-1
2.930920546E1,-2.796456814E-1,4.257377386E-1,1.683139801E-1,5.364549609E-1
2.932776577E1,-2.160577774E-1,4.268271923E-1,2.079219818E-1,5.216262702E-1
2.934632603E1,-2.335608006E-3,6.730091572E-2,5.836639404E-1,5.875359254E-1
2.936488640E1,-1.615459323E-1,-3.084017038E-1,7.263603210E-1,8.054861980E-1
2.938346223E1,-6.165497303E-1,-6.118097305E-1,1.391327858E0,1.640194478E0
2.940200697E1,-9.946901202E-1,-8.363544941E-1,1.359042168E0,1.880397003E0
2.942056879E1,-1.016757488E0,-9.332487583E-1,8.497829437E-1,1.620765278E0
2.943912759E1,-8.238382339E-1,-7.578773499E-1,3.053779602E-1,1.160320306E0
2.945768785E1,-5.411138535E-1,-5.019491911E-1,-2.666835785E-1,7.847785190E-1
2.947624817E1,-4.054996669E-1,-4.201024771E-1,-6.647500992E-1,8.847648080E-1
2.949480848E1,-4.555790126E-1,-5.409631729E-1,-8.202428818E-1,1.083047449E0
2.951336879E1,-6.802610159E-1,-7.029750943E-1,-3.699588776E-1,1.045848270E0
2.953192910E1,-6.215739250E-1,-8.997303843E-1,1.180801392E-1,1.099914464E0
2.955048936E1,-4.054476619E-1,-9.833139181E-1,2.213430405E-1,1.086410056E0
2.956904968E1,-1.066247523E-1,-8.969228268E-1,4.181003571E-1,9.953126662E-1
2.958760999E1,1.483333409E-1,-7.492541075E-1,4.091024399E-1,8.664579066E-1
2.960617030E1,3.090280294E-2,-5.737209320E-1,-3.277568817E-1,6.614644847E-1
2.962473056E1,-1.339181960E-1,-5.032119751E-1,-8.585500717E-1,1.004123798E0
2.964329088E1,-2.184563875E-1,-4.309079647E-1,-1.015434265E0,1.124505053E0
2.966189676E1,-3.525909185E-1,-3.912968636E-1,-1.054982185E0,1.179161144E0
2.968041150E1,-2.964251935E-1,-4.049960375E-1,-1.189733505E0,1.291261205E0
2.969897181E1,-2.218855619E-1,-3.019102812E-1,-1.092018127E0,1.154507086E0
2.971753207E1,-2.574004531E-1,-2.112494707E-1,-8.053054810E-1,8.714345929E-1
2.973609239E1,-3.375340402E-1,-2.121376991E-1,-7.193737030E-1,8.224537411E-1
2.975465270E1,-3.838824332E-1,-2.393431664E-1,-3.790550232E-1,5.901979197E-1
2.977321301E1,-4.003405869E-1,-2.103079557E-1,-1.994981766E-1,4.942686964E-1
2.979177327E1,-4.627572894E-1,-1.952848434E-1,-1.048936844E-1,5.131112589E-1
2.981033358E1,-4.012671709E-1,-1.922417879E-1,-1.455554962E-1,4.681438347E-1
2.982889390E1,-3.676632941E-1,-9.978652000E-2,1.612472534E-2,3.813051982E-1
2.984745421E1,-3.224878013E-1,-3.090715408E-2,1.365966797E-1,3.515853909E-1
2.986601447E1,-4.073376060E-1,8.982729912E-2,-6.457424164E-2,4.220932380E-1
2.988457478E1,-5.321033001E-1,1.963014603E-1,-1.152420044E-2,5.672750589E-1
2.990313509E1,-6.123619080E-1,1.866803169E-1,3.043355942E-1,7.088418730E-1
